time,accel_x,accel_y,accel_z
0,1.862795,-0.392167,-9.673463
0.02,1.895476,-0.424848,-9.640783
0.04,1.895476,-0.359487,-9.706145
0.06,1.895476,-0.392167,-9.640783
0.08,1.895476,-0.392167,-9.640783
0.1,1.895476,-0.392167,-9.673463
0.12,1.862795,-0.392167,-9.673463
0.14,1.862795,-0.359487,-9.673463
0.16,1.928157,-0.424848,-9.673463
0.18,1.895476,-0.359487,-9.673463
0.2,1.895476,-0.392167,-9.738825
0.22,1.862795,-0.392167,-9.673463
0.24,1.895476,-0.392167,-9.673463
0.26,1.895476,-0.359487,-9.673463
0.28,1.862795,-0.359487,-9.640783
0.3,1.895476,-0.359487,-9.640783
0.32,1.928157,-0.392167,-9.673463
0.34,1.862795,-0.392167,-9.640783
0.36,1.862795,-0.392167,-9.673463
0.38,1.895476,-0.359487,-9.706145
0.4,1.895476,-0.424848,-9.673463
0.42,1.895476,-0.424848,-9.640783
0.44,1.895476,-0.424848,-9.706145
0.46,1.862795,-0.359487,-9.673463
0.48,1.895476,-0.392167,-9.706145
0.5,1.895476,-0.424848,-9.706145
0.52,1.895476,-0.457529,-9.706145
0.54,1.895476,-0.392167,-9.706145
0.56,1.928157,-0.359487,-9.738825
0.58,1.895476,-0.359487,-9.706145
0.6,1.928157,-0.392167,-9.673463
0.62,1.928157,-0.359487,-9.738825
0.64,1.862795,-0.424848,-9.706145
0.66,1.862795,-0.424848,-9.706145
0.68,1.928157,-0.424848,-9.706145
0.7,1.895476,-0.457529,-9.706144
0.72,1.862795,-0.424848,-9.706144
0.74,1.895476,-0.359487,-9.706144
0.76,1.928157,-0.326806,-9.673464
0.78,1.895476,-0.392167,-9.706144
0.8,1.895476,-0.424848,-9.706144
0.82,1.862795,-0.424848,-9.673464
0.84,1.895476,-0.392167,-9.673464
0.86,1.928157,-0.392167,-9.706144
0.88,1.895476,-0.424848,-9.706144
0.9,1.895476,-0.457529,-9.706144
0.92,1.928157,-0.359487,-9.706144
0.94,1.928157,-0.326806,-9.673464
0.96,1.895476,-0.392167,-9.673464
0.98,1.895476,-0.457529,-9.673464
1,1.895476,-0.457529,-9.673464
1.02,1.895476,-0.392167,-9.673464
1.04,1.928157,-0.326806,-9.673464
1.06,1.928157,-0.392167,-9.673464
1.08,1.895476,-0.424848,-9.673464
1.1,1.895476,-0.392167,-9.673464
1.12,1.895476,-0.359487,-9.640783
1.14,1.960837,-0.359487,-9.673464
1.16,1.928157,-0.392167,-9.640783
1.18,1.895476,-0.457529,-9.673464
1.2,1.862795,-0.424848,-9.673464
1.22,1.928157,-0.326806,-9.673464
1.24,1.895476,-0.359487,-9.640783
1.26,1.928157,-0.392167,-9.673464
1.28,1.862795,-0.392167,-9.673464
1.3,1.928157,-0.424848,-9.673464
1.32,1.960837,-0.359487,-9.673464
1.34,1.895476,-0.392167,-9.640783
1.36,1.862795,-0.392167,-9.673464
1.38,1.895476,-0.424848,-9.673464
1.4,1.895476,-0.424848,-9.706144
1.42,1.895476,-0.359487,-9.640783
1.44,1.928157,-0.359487,-9.706144
1.46,1.928157,-0.424848,-9.706144
1.48,1.895476,-0.424848,-9.673464
1.5,1.895476,-0.359487,-9.706144
1.52,1.928157,-0.392167,-9.706144
1.54,1.895476,-0.392167,-9.673464
1.56,1.895476,-0.392167,-9.706144
1.58,1.895476,-0.392167,-9.673464
1.6,1.862795,-0.392167,-9.673464
1.62,1.895476,-0.424848,-9.738825
1.64,1.895476,-0.424848,-9.673464
1.66,1.928157,-0.424848,-9.738825
1.68,1.895476,-0.424848,-9.738825
1.7,1.862795,-0.424848,-9.706144
1.72,1.895476,-0.392167,-9.706144
1.74,1.928157,-0.359487,-9.706144
1.76,1.895476,-0.392167,-9.673464
1.78,1.895476,-0.392167,-9.738825
1.8,1.895476,-0.359487,-9.673464
1.82,1.895476,-0.359487,-9.673464
1.84,1.895476,-0.424848,-9.706144
1.86,1.862795,-0.424848,-9.706144
1.88,1.862795,-0.359487,-9.673464
1.9,1.928157,-0.359487,-9.673464
1.92,1.960837,-0.392167,-9.706144
1.94,1.928157,-0.392167,-9.673464
1.96,1.862795,-0.392167,-9.673464
1.98,1.862795,-0.392167,-9.673464
2,1.895476,-0.359487,-9.673464
2.02,1.895476,-0.424848,-9.673464
2.04,1.895476,-0.392167,-9.640783
2.06,1.895476,-0.424848,-9.640783
2.08,1.895476,-0.359487,-9.673464
2.1,1.895476,-0.359487,-9.673464
2.12,1.862795,-0.359487,-9.673464
2.14,1.895476,-0.392167,-9.738825
2.16,1.862795,-0.392167,-9.706144
2.18,1.862795,-0.392167,-9.640783
2.2,1.895476,-0.359487,-9.640783
2.22,1.928157,-0.392167,-9.673464
2.24,1.895476,-0.424848,-9.673464
2.26,1.895476,-0.392167,-9.673464
2.28,1.895476,-0.392167,-9.673464
2.3,1.895476,-0.392167,-9.673464
2.32,1.928157,-0.424848,-9.673464
2.34,1.895476,-0.326806,-9.706144
2.36,1.895476,-0.359487,-9.640783
2.38,1.928157,-0.392167,-9.640783
2.4,1.895476,-0.392167,-9.673464
2.42,1.862795,-0.392167,-9.640783
2.44,1.862795,-0.326806,-9.673464
2.46,1.895476,-0.359487,-9.706144
2.48,1.862795,-0.392167,-9.640783
2.5,1.895476,-0.424848,-9.706144
2.52,1.895476,-0.392167,-9.706144
2.54,1.862795,-0.424848,-9.738825
2.56,1.928157,-0.424848,-9.706144
2.58,1.928157,-0.424848,-9.673464
2.6,1.895476,-0.392167,-9.738825
2.62,1.862795,-0.424848,-9.706144
2.64,1.862795,-0.392167,-9.706144
2.66,1.928157,-0.392167,-9.706144
2.68,1.960837,-0.424848,-9.706144
2.7,1.928157,-0.424848,-9.706144
2.72,1.928157,-0.359487,-9.706144
2.74,1.928157,-0.359487,-9.673464
2.76,1.928157,-0.424848,-9.706144
2.78,1.862795,-0.392167,-9.673464
2.8,1.895476,-0.424848,-9.706144
2.82,1.960837,-0.424848,-9.706144
2.84,1.928157,-0.424848,-9.673464
2.86,1.895476,-0.392167,-9.706144
2.88,1.862795,-0.424848,-9.706144
2.9,1.928157,-0.392167,-9.706144
2.92,1.928157,-0.392167,-9.706144
2.94,1.895476,-0.359487,-9.706144
2.96,1.862795,-0.392167,-9.673464
2.98,1.895476,-0.392167,-9.673464
3,1.895476,-0.424848,-9.640783
3.02,1.862795,-0.392167,-9.673464
3.04,1.862795,-0.424848,-9.673464
3.06,1.928157,-0.392167,-9.673464
3.08,1.928157,-0.424848,-9.673464
3.1,1.895476,-0.424848,-9.673464
3.12,1.895476,-0.392167,-9.673464
3.14,1.928157,-0.359487,-9.673464
3.16,1.928157,-0.392167,-9.706144
3.18,1.895476,-0.424848,-9.673464
3.2,1.895476,-0.392167,-9.673464
3.22,1.895476,-0.359487,-9.673464
3.24,1.895476,-0.359487,-9.640783
3.26,1.895476,-0.457529,-9.706144
3.28,1.862795,-0.457529,-9.640783
3.3,1.895476,-0.392167,-9.673464
3.32,1.928157,-0.392167,-9.706144
3.34,1.862795,-0.359487,-9.640783
3.36,1.895476,-0.424848,-9.673464
3.38,1.895476,-0.424848,-9.640783
3.4,1.895476,-0.392167,-9.673464
3.42,1.862795,-0.392167,-9.673464
3.44,1.862795,-0.392167,-9.706144
3.46,1.895476,-0.392167,-9.706144
3.48,1.862795,-0.392167,-9.706144
3.5,1.862795,-0.392167,-9.706144
3.52,1.895476,-0.392167,-9.706144
3.54,1.895476,-0.392167,-9.706144
3.56,1.928157,-0.424848,-9.706144
3.58,1.928157,-0.424848,-9.706144
3.6,1.928157,-0.359487,-9.706144
3.62,1.895476,-0.392167,-9.673464
3.64,1.928157,-0.392167,-9.706144
3.66,1.895476,-0.392167,-9.706144
3.68,1.895476,-0.424848,-9.706144
3.7,1.862795,-0.359487,-9.706144
3.72,1.895476,-0.359487,-9.706144
3.74,1.895476,-0.424848,-9.673464
3.76,1.862795,-0.424848,-9.673464
3.78,1.895476,-0.392167,-9.673464
3.8,1.928157,-0.392167,-9.706144
3.82,1.895476,-0.359487,-9.673464
3.84,1.928157,-0.424848,-9.706144
3.86,1.862795,-0.424848,-9.706144
3.88,1.862795,-0.392167,-9.706144
3.9,1.960837,-0.359487,-9.673464
3.92,1.928157,-0.392167,-9.706144
3.94,1.895476,-0.424848,-9.673464
3.96,1.862795,-0.392167,-9.640783
3.98,1.895476,-0.359487,-9.640783
4,1.895476,-0.359487,-9.673464
4.02,1.895476,-0.392167,-9.673464
4.04,1.862795,-0.392167,-9.706144
4.06,1.895476,-0.359487,-9.673464
4.08,1.928157,-0.359487,-9.640783
4.1,1.895476,-0.392167,-9.640783
4.12,1.862795,-0.424848,-9.673464
4.14,1.862795,-0.424848,-9.673464
4.16,1.928157,-0.424848,-9.673464
4.18,1.928157,-0.359487,-9.640783
4.2,1.928157,-0.392167,-9.673464
4.22,1.895476,-0.392167,-9.673464
4.24,1.895476,-0.424848,-9.640783
4.26,1.895476,-0.359487,-9.673464
4.28,1.895476,-0.392167,-9.640783
4.3,1.862795,-0.392167,-9.640783
4.32,1.895476,-0.424848,-9.673464
4.34,1.862795,-0.457529,-9.640783
4.36,1.895476,-0.359487,-9.640783
4.38,1.895476,-0.294126,-9.706144
4.4,1.895476,-0.392167,-9.640783
4.42,1.895476,-0.457529,-9.673464
4.44,1.862795,-0.392167,-9.640783
4.46,1.862795,-0.326806,-9.673464
4.48,1.895476,-0.359487,-9.706144
4.5,1.928157,-0.392167,-9.706144
4.52,1.895476,-0.424848,-9.706144
4.54,1.928157,-0.392167,-9.706144
4.56,1.895476,-0.359487,-9.706144
4.58,1.928157,-0.359487,-9.673464
4.6,1.895476,-0.424848,-9.706144
4.62,1.862795,-0.457529,-9.706144
4.64,1.862795,-0.392167,-9.673464
4.66,1.928157,-0.359487,-9.673464
4.68,1.928157,-0.392167,-9.706144
4.7,1.895476,-0.424848,-9.673463
4.72,1.895476,-0.424848,-9.673463
4.74,1.895476,-0.392167,-9.706144
4.76,1.895476,-0.457529,-9.673463
4.78,1.895476,-0.392167,-9.706144
4.8,1.895476,-0.392167,-9.706144
4.82,1.895476,-0.392167,-9.673463
4.84,1.928157,-0.392167,-9.706144
4.86,1.895476,-0.359487,-9.706144
4.88,1.895476,-0.392167,-9.673463
4.9,1.928157,-0.424848,-9.706144
4.92,1.895476,-0.392167,-9.706144
4.94,1.862795,-0.359487,-9.738825
4.96,1.895476,-0.392167,-9.706144
4.98,1.928157,-0.392167,-9.640783
5,1.895476,-0.359487,-9.673463
5.02,1.895476,-0.424848,-9.640783
5.04,1.895476,-0.392167,-9.673463
5.06,1.895476,-0.392167,-9.673463
5.08,1.895476,-0.392167,-9.673463
5.1,1.862795,-0.424848,-9.673463
5.12,1.895476,-0.392167,-9.673463
5.14,1.895476,-0.392167,-9.706144
5.16,1.862795,-0.457529,-9.640783
5.18,1.895476,-0.457529,-9.673463
5.2,1.895476,-0.457529,-9.673463
5.22,1.928157,-0.392167,-9.706144
5.24,1.928157,-0.392167,-9.673463
5.26,1.895476,-0.424848,-9.673463
5.28,1.862795,-0.392167,-9.673463
5.3,1.928157,-0.326806,-9.640783
5.32,1.928157,-0.424848,-9.706144
5.34,1.895476,-0.424848,-9.673463
5.36,1.895476,-0.392167,-9.673463
5.38,1.928157,-0.424848,-9.673463
5.4,1.928157,-0.359487,-9.673463
5.42,1.895476,-0.326806,-9.673463
5.44,1.862795,-0.392167,-9.706144
5.46,1.928157,-0.457529,-9.706144
5.48,1.928157,-0.457529,-9.706144
5.5,1.895476,-0.392167,-9.738825
5.52,1.895476,-0.392167,-9.673463
5.54,1.928157,-0.424848,-9.673463
5.56,1.928157,-0.424848,-9.738825
5.58,1.895476,-0.392167,-9.706144
5.6,1.895476,-0.392167,-9.706144
5.62,1.928157,-0.392167,-9.706144
5.64,1.928157,-0.392167,-9.706144
5.66,1.928157,-0.392167,-9.738825
5.68,1.862795,-0.392167,-9.706144
5.7,1.895476,-0.326806,-9.738825
5.72,1.928157,-0.392167,-9.706144
5.74,1.895476,-0.424848,-9.706144
5.76,1.862795,-0.392167,-9.673464
5.78,1.928157,-0.359487,-9.706144
5.8,1.960837,-0.457529,-9.673464
5.82,1.895476,-0.424848,-9.706144
5.84,1.862795,-0.359487,-9.738825
5.86,1.895476,-0.359487,-9.673464
5.88,1.960837,-0.392167,-9.706144
5.9,1.895476,-0.424848,-9.673464
5.92,1.862795,-0.490209,-9.706144
5.94,1.895476,-0.457529,-9.673464
5.96,1.960837,-0.392167,-9.706144
5.98,1.928157,-0.326806,-9.738825
6,1.830115,-0.359487,-9.673464
6.02,1.862795,-0.457529,-9.673464
6.04,1.960837,-0.457529,-9.673464
6.06,1.895476,-0.359487,-9.640783
6.08,1.830115,-0.359487,-9.706144
6.1,1.830115,-0.424848,-9.673464
6.12,1.862795,-0.424848,-9.640783
6.14,1.895476,-0.359487,-9.673464
6.16,1.895476,-0.359487,-9.673464
6.18,1.895476,-0.392167,-9.706144
6.2,1.862795,-0.392167,-9.608102
6.22,1.928157,-0.392167,-9.706144
6.24,1.895476,-0.457529,-9.738825
6.26,1.797434,-0.392167,-9.640783
6.28,1.895476,-0.359487,-9.673464
6.3,1.928157,-0.392167,-9.640783
6.32,1.895476,-0.424848,-9.640783
6.34,1.862795,-0.392167,-9.706144
6.36,1.830115,-0.326806,-9.673464
6.38,1.895476,-0.359487,-9.673464
6.4,1.928157,-0.424848,-9.706144
6.42,1.862795,-0.424848,-9.608102
6.44,1.862795,-0.392167,-9.738825
6.46,1.895476,-0.359487,-9.706144
6.48,1.895476,-0.392167,-9.673464
6.5,1.928157,-0.392167,-9.738825
6.52,1.895476,-0.424848,-9.673464
6.54,1.895476,-0.392167,-9.738825
6.56,1.928157,-0.392167,-9.706144
6.58,1.862795,-0.457529,-9.706144
6.6,1.895476,-0.424848,-9.738825
6.62,1.928157,-0.326806,-9.673464
6.64,1.960837,-0.359487,-9.738825
6.66,1.862795,-0.457529,-9.673464
6.68,1.862795,-0.457529,-9.673464
6.7,1.928157,-0.424848,-9.738825
6.72,1.928157,-0.392167,-9.706144
6.74,1.928157,-0.392167,-9.706144
6.76,1.862795,-0.424848,-9.706144
6.78,1.862795,-0.457529,-9.706144
6.8,1.895476,-0.392167,-9.673464
6.82,1.928157,-0.359487,-9.706144
6.84,1.895476,-0.457529,-9.706144
6.86,1.895476,-0.457529,-9.706144
6.88,1.895476,-0.359487,-9.706144
6.9,1.928157,-0.294126,-9.673464
6.92,1.928157,-0.359487,-9.706144
6.94,1.895476,-0.457529,-9.738825
6.96,1.862795,-0.457529,-9.706144
6.98,1.895476,-0.392167,-9.673464
7,1.928157,-0.294126,-9.640783
7.02,1.862795,-0.392167,-9.673464
7.04,1.862795,-0.392167,-9.673464
7.06,1.895476,-0.424848,-9.673464
7.08,1.928157,-0.359487,-9.608102
7.1,1.862795,-0.359487,-9.673464
7.12,1.928157,-0.424848,-9.673464
7.14,1.862795,-0.424848,-9.673464
7.16,1.862795,-0.392167,-9.673464
7.18,1.895476,-0.326806,-9.673464
7.2,1.895476,-0.392167,-9.640783
7.22,1.895476,-0.392167,-9.706144
7.24,1.862795,-0.424848,-9.608102
7.26,1.895476,-0.392167,-9.673464
7.28,1.862795,-0.392167,-9.673464
7.3,1.862795,-0.424848,-9.673464
7.32,1.862795,-0.392167,-9.673464
7.34,1.895476,-0.359487,-9.673464
7.36,1.895476,-0.359487,-9.673464
7.38,1.895476,-0.392167,-9.706144
7.4,1.895476,-0.424848,-9.640783
7.42,1.895476,-0.457529,-9.673464
7.44,1.895476,-0.392167,-9.673464
7.46,1.862795,-0.424848,-9.673464
7.48,1.928157,-0.392167,-9.706144
7.5,1.960837,-0.392167,-9.706144
7.52,1.895476,-0.392167,-9.706144
7.54,1.862795,-0.424848,-9.706144
7.56,1.862795,-0.392167,-9.706144
7.58,1.928157,-0.359487,-9.673464
7.6,1.928157,-0.392167,-9.706144
7.62,1.895476,-0.392167,-9.706144
7.64,1.895476,-0.359487,-9.706144
7.66,1.928157,-0.392167,-9.706144
7.68,1.895476,-0.424848,-9.706144
7.7,1.862795,-0.424848,-9.706144
7.72,1.862795,-0.424848,-9.706144
7.74,1.928157,-0.392167,-9.673463
7.76,1.928157,-0.392167,-9.673463
7.78,1.862795,-0.392167,-9.706144
7.8,1.862795,-0.424848,-9.673463
7.82,1.895476,-0.392167,-9.706144
7.84,1.928157,-0.392167,-9.673463
7.86,1.928157,-0.424848,-9.673463
7.88,1.862795,-0.424848,-9.706144
7.9,1.895476,-0.424848,-9.673463
7.92,1.928157,-0.359487,-9.706144
7.94,1.895476,-0.359487,-9.706144
7.96,1.895476,-0.424848,-9.706144
7.98,1.895476,-0.392167,-9.673463
8,1.895476,-0.392167,-9.673463
8.02,1.862795,-0.359487,-9.640783
8.04,1.895476,-0.392167,-9.673463
8.06,1.895476,-0.392167,-9.673463
8.08,1.895476,-0.392167,-9.640783
8.1,1.862795,-0.392167,-9.673463
8.12,1.895476,-0.359487,-9.673463
8.14,1.895476,-0.392167,-9.706144
8.16,1.895476,-0.424848,-9.673463
8.18,1.895476,-0.424848,-9.673463
8.2,1.895476,-0.359487,-9.706144
8.22,1.928157,-0.359487,-9.706144
8.24,1.895476,-0.424848,-9.673463
8.26,1.895476,-0.424848,-9.673463
8.28,1.895476,-0.392167,-9.673463
8.3,1.895476,-0.424848,-9.640783
8.32,1.895476,-0.359487,-9.673463
8.34,1.928157,-0.392167,-9.673463
8.36,1.928157,-0.392167,-9.673463
8.38,1.895476,-0.392167,-9.640783
8.4,1.895476,-0.392167,-9.673463
8.42,1.895476,-0.392167,-9.673463
8.44,1.960837,-0.392167,-9.673463
8.46,1.895476,-0.392167,-9.673463
8.48,1.895476,-0.392167,-9.673463
8.5,1.895476,-0.359487,-9.673463
8.52,1.960837,-0.392167,-9.706144
8.54,1.895476,-0.392167,-9.706144
8.56,1.862795,-0.392167,-9.706144
8.58,1.895476,-0.392167,-9.673463
8.6,1.928157,-0.424848,-9.673463
8.62,1.895476,-0.392167,-9.738824
8.64,1.862795,-0.392167,-9.673463
8.66,1.895476,-0.392167,-9.706144
8.68,1.895476,-0.424848,-9.706144
8.7,1.928157,-0.392167,-9.673463
8.72,1.928157,-0.392167,-9.706145
8.74,1.862795,-0.424848,-9.706145
8.76,1.862795,-0.392167,-9.706145
8.78,1.895476,-0.359487,-9.706145
8.8,1.862795,-0.392167,-9.673463
8.82,1.895476,-0.424848,-9.706145
8.84,1.895476,-0.457529,-9.706145
8.86,1.928157,-0.392167,-9.673463
8.88,1.928157,-0.424848,-9.706145
8.9,1.895476,-0.359487,-9.706145
8.92,1.928157,-0.392167,-9.706145
8.94,1.895476,-0.424848,-9.738825
8.96,1.895476,-0.392167,-9.706145
8.98,1.895476,-0.392167,-9.673463
9,1.895476,-0.392167,-9.673463
9.02,1.862795,-0.392167,-9.673463
9.04,1.895476,-0.424848,-9.706145
9.06,1.895476,-0.359487,-9.673463
9.08,1.895476,-0.392167,-9.673463
9.1,1.895476,-0.359487,-9.673463
9.12,1.895476,-0.424848,-9.673463
9.14,1.895476,-0.392167,-9.640783
9.16,1.895476,-0.392167,-9.673463
9.18,1.928157,-0.392167,-9.673463
9.2,1.895476,-0.392167,-9.706145
9.22,1.895476,-0.424848,-9.673463
9.24,1.895476,-0.392167,-9.673463
9.26,1.895476,-0.359487,-9.673463
9.28,1.928157,-0.424848,-9.673463
9.3,1.895476,-0.424848,-9.673463
9.32,1.895476,-0.392167,-9.673463
9.34,1.895476,-0.392167,-9.640783
9.36,1.895476,-0.392167,-9.640783
9.38,1.862795,-0.424848,-9.673463
9.4,1.895476,-0.392167,-9.673463
9.42,1.895476,-0.392167,-9.673463
9.44,1.928157,-0.359487,-9.706145
9.46,1.895476,-0.392167,-9.673463
9.48,1.895476,-0.359487,-9.706145
9.5,1.895476,-0.359487,-9.673463
9.52,1.895476,-0.392167,-9.706145
9.54,1.895476,-0.392167,-9.706145
9.56,1.895476,-0.392167,-9.706145
9.58,1.895476,-0.424848,-9.706145
9.6,1.928157,-0.392167,-9.738825
9.62,1.895476,-0.392167,-9.706145
9.64,1.895476,-0.392167,-9.706145
9.66,1.862795,-0.359487,-9.706145
9.68,1.895476,-0.392167,-9.673463
9.7,1.862795,-0.424848,-9.673463
9.72,1.895476,-0.424848,-9.706144
9.74,1.928157,-0.392167,-9.673463
9.76,1.928157,-0.392167,-9.706144
9.78,1.928157,-0.392167,-9.706144
9.8,1.862795,-0.424848,-9.706144
9.82,1.895476,-0.392167,-9.706144
9.84,1.928157,-0.392167,-9.673463
9.86,1.895476,-0.392167,-9.673463
9.88,1.895476,-0.424848,-9.706144
9.9,1.895476,-0.424848,-9.706144
9.92,1.895476,-0.392167,-9.673463
9.94,1.928157,-0.359487,-9.706144
9.96,1.862795,-0.392167,-9.706144
9.98,1.895476,-0.424848,-9.706144
10,1.895476,-0.392167,-9.673463
10.02,1.928157,-0.392167,-9.640783
10.04,1.928157,-0.392167,-9.673463
10.06,1.862795,-0.424848,-9.673463
10.08,1.895476,-0.424848,-9.640783
10.1,1.895476,-0.392167,-9.673463
10.12,1.895476,-0.392167,-9.673463
10.14,1.895476,-0.392167,-9.673463
10.16,1.862795,-0.392167,-9.640783
10.18,1.895476,-0.424848,-9.673463
10.2,1.928157,-0.424848,-9.673463
10.22,1.895476,-0.392167,-9.640783
10.24,1.895476,-0.359487,-9.673463
10.26,1.895476,-0.359487,-9.673463
10.28,1.895476,-0.359487,-9.673463
10.3,1.895476,-0.392167,-9.673463
10.32,1.928157,-0.359487,-9.640783
10.34,1.862795,-0.326806,-9.673463
10.36,1.895476,-0.392167,-9.673463
10.38,1.928157,-0.457529,-9.673463
10.4,1.862795,-0.359487,-9.673463
10.42,1.895476,-0.359487,-9.673463
10.44,1.895476,-0.424848,-9.673463
10.46,1.895476,-0.392167,-9.673463
10.48,1.895476,-0.392167,-9.640783
10.5,1.895476,-0.392167,-9.673463
10.52,1.895476,-0.424848,-9.706144
10.54,1.928157,-0.457529,-9.673463
10.56,1.960837,-0.392167,-9.706144
10.58,1.928157,-0.392167,-9.706144
10.6,1.895476,-0.392167,-9.706144
10.62,1.928157,-0.392167,-9.673463
10.64,1.928157,-0.424848,-9.706144
10.66,1.928157,-0.424848,-9.706144
10.68,1.895476,-0.359487,-9.706144
10.7,1.895476,-0.359487,-9.706144
10.72,1.928157,-0.392167,-9.706144
10.74,1.928157,-0.392167,-9.706144
10.76,1.895476,-0.392167,-9.673464
10.78,1.928157,-0.424848,-9.673464
10.8,1.895476,-0.392167,-9.706144
10.82,1.895476,-0.392167,-9.706144
10.84,1.928157,-0.392167,-9.706144
10.86,1.928157,-0.392167,-9.706144
10.88,1.895476,-0.392167,-9.706144
10.9,1.895476,-0.424848,-9.673464
10.92,1.895476,-0.392167,-9.706144
10.94,1.895476,-0.392167,-9.706144
10.96,1.862795,-0.392167,-9.706144
10.98,1.895476,-0.392167,-9.706144
11,1.895476,-0.359487,-9.673464
11.02,1.928157,-0.392167,-9.640783
11.04,1.928157,-0.392167,-9.640783
11.06,1.928157,-0.392167,-9.673464
11.08,1.895476,-0.392167,-9.673464
11.1,1.895476,-0.392167,-9.673464
11.12,1.928157,-0.392167,-9.640783
11.14,1.928157,-0.392167,-9.640783
11.16,1.862795,-0.359487,-9.640783
11.18,1.895476,-0.392167,-9.673464
11.2,1.895476,-0.392167,-9.673464
11.22,1.895476,-0.392167,-9.673464
11.24,1.895476,-0.359487,-9.640783
11.26,1.895476,-0.392167,-9.673464
11.28,1.928157,-0.424848,-9.673464
11.3,1.895476,-0.424848,-9.640783
11.32,1.928157,-0.392167,-9.640783
11.34,1.895476,-0.359487,-9.673464
11.36,1.862795,-0.392167,-9.640783
11.38,1.862795,-0.392167,-9.673464
11.4,1.895476,-0.424848,-9.640783
11.42,1.862795,-0.359487,-9.640783
11.44,1.895476,-0.359487,-9.673464
11.46,1.928157,-0.392167,-9.673464
11.48,1.928157,-0.392167,-9.673464
11.5,1.928157,-0.392167,-9.673464
11.52,1.895476,-0.392167,-9.706144
11.54,1.895476,-0.392167,-9.706144
11.56,1.895476,-0.457529,-9.673464
11.58,1.928157,-0.392167,-9.673464
11.6,1.928157,-0.392167,-9.706144
11.62,1.895476,-0.424848,-9.706144
11.64,1.862795,-0.359487,-9.706144
11.66,1.895476,-0.424848,-9.706144
11.68,1.895476,-0.424848,-9.673464
11.7,1.895476,-0.359487,-9.706144
11.72,1.895476,-0.359487,-9.673463
11.74,1.928157,-0.392167,-9.706144
11.76,1.862795,-0.392167,-9.706144
11.78,1.895476,-0.392167,-9.706144
11.8,1.928157,-0.424848,-9.706144
11.82,1.928157,-0.392167,-9.673463
11.84,1.928157,-0.392167,-9.706144
11.86,1.928157,-0.392167,-9.673463
11.88,1.895476,-0.392167,-9.673463
11.9,1.928157,-0.424848,-9.706144
11.92,1.895476,-0.424848,-9.673463
11.94,1.928157,-0.424848,-9.706144
11.96,1.895476,-0.424848,-9.673463
11.98,1.928157,-0.392167,-9.706144
12,1.895476,-0.359487,-9.673463
12.02,1.895476,-0.392167,-9.640783
12.04,1.895476,-0.392167,-9.673463
12.06,1.895476,-0.392167,-9.706144
12.08,1.862795,-0.392167,-9.673463
12.1,1.862795,-0.392167,-9.673463
12.12,1.862795,-0.424848,-9.640783
12.14,1.928157,-0.392167,-9.673463
12.16,1.862795,-0.359487,-9.673463
12.18,1.862795,-0.392167,-9.640783
12.2,1.862795,-0.392167,-9.640783
12.22,1.928157,-0.392167,-9.673463
12.24,1.895476,-0.392167,-9.706144
12.26,1.895476,-0.392167,-9.673463
12.28,1.895476,-0.392167,-9.673463
12.3,1.895476,-0.359487,-9.673463
12.32,1.895476,-0.392167,-9.673463
12.34,1.928157,-0.424848,-9.673463
12.36,1.895476,-0.392167,-9.673463
12.38,1.895476,-0.359487,-9.640783
12.4,1.895476,-0.359487,-9.673463
12.42,1.928157,-0.392167,-9.673463
12.44,1.895476,-0.392167,-9.673463
12.46,1.862795,-0.392167,-9.673463
12.48,1.862795,-0.392167,-9.673463
12.5,1.895476,-0.359487,-9.673463
12.52,1.895476,-0.359487,-9.673463
12.54,1.895476,-0.424848,-9.706144
12.56,1.895476,-0.392167,-9.673463
12.58,1.895476,-0.392167,-9.673463
12.6,1.895476,-0.359487,-9.706144
12.62,1.895476,-0.392167,-9.706144
12.64,1.895476,-0.392167,-9.706144
12.66,1.895476,-0.392167,-9.706144
12.68,1.928157,-0.392167,-9.706144
12.7,1.895476,-0.392167,-9.706145
12.72,1.862795,-0.359487,-9.706145
12.74,1.895476,-0.424848,-9.706145
12.76,1.895476,-0.392167,-9.706145
12.78,1.928157,-0.392167,-9.706145
12.8,1.895476,-0.392167,-9.706145
12.82,1.895476,-0.424848,-9.706145
12.84,1.895476,-0.424848,-9.706145
12.86,1.895476,-0.392167,-9.706145
12.88,1.928157,-0.424848,-9.706145
12.9,1.928157,-0.392167,-9.673463
12.92,1.960837,-0.392167,-9.706145
12.94,1.928157,-0.392167,-9.706145
12.96,1.895476,-0.392167,-9.673463
12.98,1.895476,-0.424848,-9.673463
13,1.862795,-0.424848,-9.706145
13.02,1.895476,-0.392167,-9.673463
13.04,1.895476,-0.392167,-9.673463
13.06,1.928157,-0.424848,-9.640783
13.08,1.895476,-0.392167,-9.673463
13.1,1.862795,-0.392167,-9.640783
13.12,1.862795,-0.392167,-9.673463
13.14,1.862795,-0.392167,-9.673463
13.16,1.895476,-0.359487,-9.640783
13.18,1.895476,-0.392167,-9.640783
13.2,1.862795,-0.392167,-9.673463
13.22,1.862795,-0.392167,-9.706145
13.24,1.895476,-0.392167,-9.673463
13.26,1.895476,-0.392167,-9.673463
13.28,1.895476,-0.392167,-9.673463
13.3,1.895476,-0.359487,-9.706145
13.32,1.862795,-0.392167,-9.673463
13.34,1.928157,-0.359487,-9.673463
13.36,1.928157,-0.392167,-9.673463
13.38,1.862795,-0.392167,-9.706145
13.4,1.895476,-0.392167,-9.673463
13.42,1.895476,-0.359487,-9.640783
13.44,1.895476,-0.359487,-9.640783
13.46,1.895476,-0.359487,-9.673463
13.48,1.928157,-0.359487,-9.640783
13.5,1.895476,-0.392167,-9.640783
13.52,1.895476,-0.392167,-9.706145
13.54,1.928157,-0.424848,-9.706145
13.56,1.928157,-0.392167,-9.706145
13.58,1.895476,-0.424848,-9.673463
13.6,1.895476,-0.424848,-9.706145
13.62,1.862795,-0.424848,-9.706145
13.64,1.895476,-0.359487,-9.706145
13.66,1.928157,-0.392167,-9.706145
13.68,1.895476,-0.424848,-9.706145
13.7,1.895476,-0.424848,-9.673463
13.72,1.895476,-0.424848,-9.673463
13.74,1.895476,-0.424848,-9.706144
13.76,1.895476,-0.392167,-9.706144
13.78,1.928157,-0.392167,-9.706144
13.8,1.928157,-0.392167,-9.706144
13.82,1.895476,-0.392167,-9.706144
13.84,1.895476,-0.392167,-9.706144
13.86,1.928157,-0.424848,-9.706144
13.88,1.928157,-0.392167,-9.673463
13.9,1.895476,-0.392167,-9.738824
13.92,1.895476,-0.392167,-9.706144
13.94,1.862795,-0.424848,-9.706144
13.96,1.895476,-0.392167,-9.706144
13.98,1.895476,-0.424848,-9.673463
14,1.895476,-0.424848,-9.706144
14.02,1.895476,-0.359487,-9.673463
14.04,1.895476,-0.392167,-9.673463
14.06,1.895476,-0.424848,-9.673463
14.08,1.895476,-0.392167,-9.640783
14.1,1.895476,-0.359487,-9.673463
14.12,1.895476,-0.424848,-9.673463
14.14,1.895476,-0.424848,-9.673463
14.16,1.928157,-0.359487,-9.673463
14.18,1.895476,-0.424848,-9.673463
14.2,1.895476,-0.392167,-9.673463
14.22,1.895476,-0.392167,-9.673463
14.24,1.895476,-0.392167,-9.673463
14.26,1.928157,-0.359487,-9.706144
14.28,1.928157,-0.392167,-9.673463
14.3,1.895476,-0.392167,-9.640783
14.32,1.895476,-0.359487,-9.673463
14.34,1.895476,-0.392167,-9.640783
14.36,1.895476,-0.359487,-9.673463
14.38,1.895476,-0.424848,-9.673463
14.4,1.895476,-0.392167,-9.640783
14.42,1.895476,-0.359487,-9.673463
14.44,1.895476,-0.424848,-9.673463
14.46,1.895476,-0.424848,-9.673463
14.48,1.895476,-0.392167,-9.640783
14.5,1.928157,-0.392167,-9.673463
14.52,1.928157,-0.359487,-9.706144
14.54,1.862795,-0.424848,-9.706144
14.56,1.862795,-0.457529,-9.673463
14.58,1.895476,-0.424848,-9.673463
14.6,1.960837,-0.392167,-9.706144
14.62,1.895476,-0.392167,-9.706144
14.64,1.862795,-0.424848,-9.706144
14.66,1.895476,-0.359487,-9.706144
14.68,1.928157,-0.326806,-9.706144
14.7,1.895476,-0.392167,-9.706144
14.72,1.862795,-0.457529,-9.706144
14.74,1.895476,-0.392167,-9.706144
14.76,1.928157,-0.392167,-9.706144
14.78,1.928157,-0.392167,-9.706144
14.8,1.895476,-0.326806,-9.706144
14.82,1.895476,-0.359487,-9.706144
14.84,1.862795,-0.392167,-9.706144
14.86,1.895476,-0.359487,-9.706144
14.88,1.895476,-0.359487,-9.706144
14.9,1.895476,-0.392167,-9.706144
14.92,1.895476,-0.424848,-9.673464
14.94,1.895476,-0.392167,-9.673464
14.96,1.895476,-0.326806,-9.706144
14.98,1.895476,-0.392167,-9.673464
15,1.862795,-0.457529,-9.706144
15.02,1.895476,-0.424848,-9.706144
15.04,1.895476,-0.359487,-9.640783
15.06,1.895476,-0.359487,-9.673464
15.08,1.895476,-0.359487,-9.640783
15.1,1.928157,-0.392167,-9.673464
15.12,1.895476,-0.424848,-9.640783
15.14,1.862795,-0.392167,-9.673464
15.16,1.895476,-0.424848,-9.640783
15.18,1.895476,-0.424848,-9.673464
15.2,1.895476,-0.392167,-9.673464
15.22,1.862795,-0.424848,-9.673464
15.24,1.862795,-0.392167,-9.673464
15.26,1.928157,-0.359487,-9.640783
15.28,1.928157,-0.392167,-9.673464
15.3,1.862795,-0.424848,-9.673464
15.32,1.895476,-0.359487,-9.640783
15.34,1.928157,-0.359487,-9.673464
15.36,1.895476,-0.359487,-9.673464
15.38,1.895476,-0.359487,-9.673464
15.4,1.895476,-0.392167,-9.673464
15.42,1.895476,-0.424848,-9.673464
15.44,1.895476,-0.392167,-9.640783
15.46,1.895476,-0.359487,-9.640783
15.48,1.862795,-0.359487,-9.673464
15.5,1.895476,-0.392167,-9.673464
15.52,1.895476,-0.392167,-9.706144
15.54,1.862795,-0.392167,-9.706144
15.56,1.895476,-0.392167,-9.706144
15.58,1.895476,-0.392167,-9.673464
15.6,1.895476,-0.424848,-9.673464
15.62,1.895476,-0.424848,-9.706144
15.64,1.895476,-0.392167,-9.673464
15.66,1.862795,-0.392167,-9.673464
15.68,1.895476,-0.424848,-9.673464
15.7,1.895476,-0.424848,-9.738825
15.72,1.895476,-0.392167,-9.706144
15.74,1.895476,-0.392167,-9.706144
15.76,1.895476,-0.424848,-9.673464
15.78,1.895476,-0.392167,-9.706144
15.8,1.895476,-0.392167,-9.706144
15.82,1.895476,-0.424848,-9.706144
15.84,1.895476,-0.392167,-9.706144
15.86,1.895476,-0.424848,-9.673464
15.88,1.895476,-0.424848,-9.673464
15.9,1.895476,-0.392167,-9.706144
15.92,1.895476,-0.359487,-9.673464
15.94,1.895476,-0.359487,-9.706144
15.96,1.928157,-0.392167,-9.706144
15.98,1.895476,-0.359487,-9.706144
16,1.895476,-0.424848,-9.706144
16.02,1.895476,-0.424848,-9.673464
16.04,1.862795,-0.359487,-9.640783
16.06,1.895476,-0.392167,-9.706144
16.08,1.862795,-0.457529,-9.640783
16.1,1.895476,-0.392167,-9.640783
16.12,1.928157,-0.392167,-9.673464
16.14,1.895476,-0.392167,-9.706144
16.16,1.862795,-0.392167,-9.673464
16.18,1.895476,-0.359487,-9.640783
16.2,1.928157,-0.392167,-9.673464
16.22,1.895476,-0.392167,-9.673464
16.24,1.862795,-0.424848,-9.673464
16.26,1.895476,-0.424848,-9.673464
16.28,1.928157,-0.392167,-9.673464
16.3,1.928157,-0.359487,-9.640783
16.32,1.830115,-0.424848,-9.673464
16.34,1.830115,-0.392167,-9.706144
16.36,1.895476,-0.392167,-9.640783
16.38,1.960837,-0.326806,-9.673464
16.4,1.862795,-0.359487,-9.673464
16.42,1.895476,-0.424848,-9.673464
16.44,1.928157,-0.392167,-9.706144
16.46,1.895476,-0.359487,-9.640783
16.48,1.895476,-0.359487,-9.706144
16.5,1.862795,-0.392167,-9.738825
16.52,1.895476,-0.359487,-9.608103
16.54,1.960837,-0.359487,-9.738825
16.56,1.862795,-0.424848,-9.706144
16.58,1.862795,-0.424848,-9.738825
16.6,1.928157,-0.392167,-9.738825
16.62,1.928157,-0.392167,-9.673464
16.64,1.928157,-0.392167,-9.706144
16.66,1.895476,-0.392167,-9.673464
16.68,1.928157,-0.424848,-9.673464
16.7,1.928157,-0.457529,-9.706144
16.72,1.895476,-0.424848,-9.673463
16.74,1.862795,-0.359487,-9.706144
16.76,1.895476,-0.424848,-9.706144
16.78,1.862795,-0.392167,-9.706144
16.8,1.895476,-0.392167,-9.706144
16.82,1.928157,-0.424848,-9.673463
16.84,1.928157,-0.424848,-9.673463
16.86,1.928157,-0.392167,-9.673463
16.88,1.928157,-0.392167,-9.706144
16.9,1.895476,-0.392167,-9.706144
16.92,1.895476,-0.392167,-9.673463
16.94,1.895476,-0.359487,-9.673463
16.96,1.928157,-0.392167,-9.706144
16.98,1.895476,-0.424848,-9.673463
17,1.895476,-0.424848,-9.706144
17.02,1.960837,-0.359487,-9.706144
17.04,1.928157,-0.359487,-9.640783
17.06,1.895476,-0.392167,-9.640783
17.08,1.862795,-0.392167,-9.706144
17.1,1.895476,-0.359487,-9.673463
17.12,1.928157,-0.392167,-9.640783
17.14,1.895476,-0.359487,-9.673463
17.16,1.895476,-0.392167,-9.640783
17.18,1.895476,-0.392167,-9.673463
17.2,1.895476,-0.424848,-9.673463
17.22,1.895476,-0.359487,-9.673463
17.24,1.928157,-0.359487,-9.673463
17.26,1.928157,-0.392167,-9.640783
17.28,1.895476,-0.424848,-9.673463
17.3,1.862795,-0.392167,-9.673463
17.32,1.895476,-0.359487,-9.640783
17.34,1.928157,-0.359487,-9.673463
17.36,1.895476,-0.392167,-9.673463
17.38,1.862795,-0.424848,-9.706144
17.4,1.895476,-0.392167,-9.640783
17.42,1.895476,-0.359487,-9.640783
17.44,1.895476,-0.392167,-9.673463
17.46,1.862795,-0.392167,-9.640783
17.48,1.862795,-0.392167,-9.673463
17.5,1.862795,-0.359487,-9.640783
17.52,1.928157,-0.359487,-9.640783
17.54,1.895476,-0.392167,-9.673463
17.56,1.862795,-0.392167,-9.673463
17.58,1.895476,-0.424848,-9.673463
17.6,1.895476,-0.392167,-9.706144
17.62,1.862795,-0.392167,-9.706144
17.64,1.895476,-0.392167,-9.706144
17.66,1.928157,-0.392167,-9.706144
17.68,1.928157,-0.392167,-9.673463
17.7,1.895476,-0.359487,-9.706144
17.72,1.895476,-0.424848,-9.673463
17.74,1.895476,-0.392167,-9.673463
17.76,1.928157,-0.392167,-9.673463
17.78,1.895476,-0.359487,-9.673463
17.8,1.862795,-0.359487,-9.706144
17.82,1.895476,-0.392167,-9.706144
17.84,1.895476,-0.392167,-9.706144
17.86,1.895476,-0.359487,-9.706144
17.88,1.895476,-0.392167,-9.706144
17.9,1.862795,-0.424848,-9.706144
17.92,1.928157,-0.359487,-9.673463
17.94,1.928157,-0.359487,-9.706144
17.96,1.895476,-0.392167,-9.706144
17.98,1.895476,-0.392167,-9.706144
18,1.895476,-0.424848,-9.673463
18.02,1.895476,-0.424848,-9.706144
18.04,1.895476,-0.392167,-9.673463
18.06,1.895476,-0.359487,-9.673463
18.08,1.862795,-0.392167,-9.706144
18.1,1.895476,-0.392167,-9.673463
18.12,1.895476,-0.392167,-9.706144
18.14,1.895476,-0.392167,-9.673463
18.16,1.895476,-0.392167,-9.673463
18.18,1.895476,-0.392167,-9.640783
18.2,1.895476,-0.392167,-9.640783
18.22,1.895476,-0.392167,-9.673463
18.24,1.862795,-0.359487,-9.608102
18.26,1.895476,-0.392167,-9.706144
18.28,1.862795,-0.392167,-9.640783
18.3,1.895476,-0.392167,-9.640783
18.32,1.895476,-0.359487,-9.673463
18.34,1.895476,-0.392167,-9.608102
18.36,1.895476,-0.392167,-9.673463
18.38,1.895476,-0.392167,-9.640783
18.4,1.895476,-0.359487,-9.640783
18.42,1.895476,-0.424848,-9.673463
18.44,1.862795,-0.424848,-9.673463
18.46,1.895476,-0.392167,-9.673463
18.48,1.895476,-0.424848,-9.706144
18.5,1.895476,-0.359487,-9.673463
18.52,1.862795,-0.359487,-9.673463
18.54,1.895476,-0.392167,-9.706144
18.56,1.895476,-0.392167,-9.673463
18.58,1.895476,-0.424848,-9.706144
18.6,1.928157,-0.392167,-9.738825
18.62,1.928157,-0.392167,-9.706144
18.64,1.862795,-0.359487,-9.706144
18.66,1.895476,-0.392167,-9.673463
18.68,1.895476,-0.392167,-9.673463
18.7,1.895476,-0.359487,-9.673463
18.72,1.895476,-0.392167,-9.673463
18.74,1.928157,-0.392167,-9.706144
18.76,1.895476,-0.424848,-9.706144
18.78,1.928157,-0.392167,-9.706144
18.8,1.993518,-0.490209,-9.673463
18.82,1.797434,-0.424848,-9.673463
18.84,1.862795,-0.424848,-9.673463
18.86,1.928157,-0.359487,-9.738825
18.88,1.928157,-0.424848,-9.706144
18.9,1.895476,-0.424848,-9.706144
18.92,1.928157,-0.359487,-9.673463
18.94,1.928157,-0.392167,-9.673463
18.96,1.895476,-0.359487,-9.706144
18.98,1.895476,-0.392167,-9.673463
19,1.895476,-0.359487,-9.706144
19.02,1.928157,-0.392167,-9.706144
19.04,1.895476,-0.392167,-9.673463
19.06,1.895476,-0.392167,-9.673463
19.08,1.895476,-0.392167,-9.640783
19.1,1.895476,-0.392167,-9.673463
19.12,1.895476,-0.359487,-9.640783
19.14,1.895476,-0.392167,-9.640783
19.16,1.928157,-0.392167,-9.706144
19.18,1.928157,-0.392167,-9.706144
19.2,1.895476,-0.326806,-9.673463
19.22,1.895476,-0.359487,-9.706144
19.24,1.862795,-0.392167,-9.673463
19.26,1.862795,-0.392167,-9.673463
19.28,1.895476,-0.392167,-9.673463
19.3,1.895476,-0.392167,-9.673463
19.32,1.928157,-0.392167,-9.673463
19.34,1.895476,-0.392167,-9.673463
19.36,1.928157,-0.326806,-9.673463
19.38,1.895476,-0.359487,-9.673463
19.4,1.895476,-0.392167,-9.673463
19.42,1.895476,-0.359487,-9.673463
19.44,1.895476,-0.424848,-9.673463
19.46,1.862795,-0.392167,-9.673463
19.48,1.862795,-0.359487,-9.640783
19.5,1.862795,-0.392167,-9.673463
19.52,1.862795,-0.392167,-9.640783
19.54,1.862795,-0.326806,-9.673463
19.56,1.862795,-0.359487,-9.706144
19.58,1.928157,-0.424848,-9.673463
19.6,1.895476,-0.424848,-9.706144
19.62,1.895476,-0.424848,-9.706144
19.64,1.895476,-0.392167,-9.706144
19.66,1.928157,-0.359487,-9.673463
19.68,1.895476,-0.392167,-9.706144
19.7,1.895476,-0.359487,-9.706144
19.72,1.862795,-0.392167,-9.706144
19.74,1.928157,-0.359487,-9.706144
19.76,1.928157,-0.359487,-9.706144
19.78,1.895476,-0.392167,-9.706144
19.8,1.928157,-0.424848,-9.673463
19.82,1.895476,-0.424848,-9.706144
19.84,1.895476,-0.359487,-9.706144
19.86,1.895476,-0.359487,-9.706144
19.88,1.895476,-0.392167,-9.706144
19.9,1.895476,-0.392167,-9.706144
19.92,1.895476,-0.359487,-9.706144
19.94,1.895476,-0.359487,-9.706144
19.96,1.928157,-0.392167,-9.673463
19.98,1.895476,-0.359487,-9.673463
20,1.895476,-0.359487,-9.706144
20.02,1.895476,-0.392167,-9.706144
20.04,1.895476,-0.392167,-9.706144
20.06,1.895476,-0.392167,-9.673463
20.08,1.895476,-0.359487,-9.673463
20.1,1.895476,-0.359487,-9.706144
20.12,1.862795,-0.359487,-9.640783
20.14,1.862795,-0.392167,-9.706144
20.16,1.895476,-0.359487,-9.673463
20.18,1.895476,-0.359487,-9.673463
20.2,1.928157,-0.359487,-9.640783
20.22,1.862795,-0.359487,-9.673463
20.24,1.895476,-0.359487,-9.673463
20.26,1.895476,-0.392167,-9.673463
20.28,1.895476,-0.392167,-9.640783
20.3,1.895476,-0.392167,-9.640783
20.32,1.895476,-0.392167,-9.706144
20.34,1.862795,-0.392167,-9.640783
20.36,1.895476,-0.392167,-9.673463
20.38,1.895476,-0.392167,-9.673463
20.4,1.862795,-0.392167,-9.640783
20.42,1.862795,-0.392167,-9.706144
20.44,1.895476,-0.359487,-9.673463
20.46,1.862795,-0.392167,-9.673463
20.48,1.895476,-0.359487,-9.673463
20.5,1.895476,-0.424848,-9.640783
20.52,1.895476,-0.392167,-9.673463
20.54,1.862795,-0.392167,-9.673463
20.56,1.862795,-0.359487,-9.673463
20.58,1.862795,-0.359487,-9.706144
20.6,1.862795,-0.392167,-9.673463
20.62,1.862795,-0.392167,-9.706144
20.64,1.895476,-0.359487,-9.706144
20.66,1.895476,-0.392167,-9.673463
20.68,1.895476,-0.392167,-9.706144
20.7,1.862795,-0.392167,-9.673463
20.72,1.928157,-0.392167,-9.706144
20.74,1.928157,-0.392167,-9.706144
20.76,1.895476,-0.392167,-9.673463
20.78,1.895476,-0.424848,-9.706144
20.8,1.862795,-0.392167,-9.706144
20.82,1.928157,-0.392167,-9.706144
20.84,1.928157,-0.392167,-9.706144
20.86,1.862795,-0.392167,-9.706144
20.88,1.895476,-0.392167,-9.706144
20.9,1.895476,-0.359487,-9.706144
20.92,1.895476,-0.392167,-9.673463
20.94,1.895476,-0.392167,-9.706144
20.96,1.895476,-0.424848,-9.706144
20.98,1.895476,-0.424848,-9.706144
21,1.928157,-0.359487,-9.673463
21.02,1.895476,-0.392167,-9.706144
21.04,1.895476,-0.424848,-9.673463
21.06,1.862795,-0.392167,-9.673463
21.08,1.862795,-0.392167,-9.673463
21.1,1.862795,-0.392167,-9.673463
21.12,1.862795,-0.359487,-9.673463
21.14,1.928157,-0.424848,-9.673463
21.16,1.895476,-0.424848,-9.640783
21.18,1.862795,-0.424848,-9.673463
21.2,1.895476,-0.392167,-9.673463
21.22,1.928157,-0.392167,-9.640783
21.24,1.862795,-0.359487,-9.640783
21.26,1.862795,-0.424848,-9.640783
21.28,1.895476,-0.392167,-9.673463
21.3,1.895476,-0.359487,-9.673463
21.32,1.895476,-0.359487,-9.640783
21.34,1.895476,-0.392167,-9.673463
21.36,1.895476,-0.457529,-9.673463
21.38,1.862795,-0.457529,-9.673463
21.4,1.895476,-0.392167,-9.706144
21.42,1.895476,-0.392167,-9.673463
21.44,1.862795,-0.392167,-9.673463
21.46,1.862795,-0.392167,-9.673463
21.48,1.862795,-0.392167,-9.673463
21.5,1.895476,-0.359487,-9.673463
21.52,1.895476,-0.359487,-9.640783
21.54,1.862795,-0.424848,-9.706144
21.56,1.928157,-0.392167,-9.673463
21.58,1.928157,-0.359487,-9.706144
21.6,1.960837,-0.359487,-9.706144
21.62,1.895476,-0.457529,-9.673463
21.64,1.862795,-0.392167,-9.706144
21.66,1.895476,-0.424848,-9.706144
21.68,1.895476,-0.392167,-9.673463
21.7,1.928157,-0.392167,-9.706144
21.72,1.862795,-0.424848,-9.706144
21.74,1.862795,-0.392167,-9.673464
21.76,1.960837,-0.392167,-9.706144
21.78,1.928157,-0.326806,-9.673464
21.8,1.895476,-0.392167,-9.706144
21.82,1.895476,-0.424848,-9.706144
21.84,1.895476,-0.424848,-9.673464
21.86,1.895476,-0.424848,-9.738825
21.88,1.895476,-0.392167,-9.706144
21.9,1.862795,-0.424848,-9.673464
21.92,1.895476,-0.359487,-9.673464
21.94,1.928157,-0.392167,-9.673464
21.96,1.862795,-0.359487,-9.706144
21.98,1.895476,-0.392167,-9.706144
22,1.928157,-0.457529,-9.706144
22.02,1.895476,-0.424848,-9.706144
22.04,1.862795,-0.424848,-9.738825
22.06,1.862795,-0.359487,-9.673464
22.08,1.862795,-0.392167,-9.640783
22.1,1.928157,-0.424848,-9.640783
22.12,1.895476,-0.392167,-9.673464
22.14,1.862795,-0.359487,-9.673464
22.16,1.895476,-0.392167,-9.673464
22.18,1.895476,-0.424848,-9.673464
22.2,1.928157,-0.392167,-9.673464
22.22,1.862795,-0.392167,-9.673464
22.24,1.862795,-0.392167,-9.673464
22.26,1.895476,-0.392167,-9.706144
22.28,1.895476,-0.392167,-9.640783
22.3,1.928157,-0.359487,-9.706144
22.32,1.895476,-0.392167,-9.673464
22.34,1.895476,-0.359487,-9.640783
22.36,1.895476,-0.392167,-9.706144
22.38,1.862795,-0.392167,-9.673464
22.4,1.862795,-0.359487,-9.640783
22.42,1.895476,-0.392167,-9.673464
22.44,1.895476,-0.392167,-9.673464
22.46,1.895476,-0.424848,-9.673464
22.48,1.895476,-0.359487,-9.706144
22.5,1.895476,-0.392167,-9.640783
22.52,1.928157,-0.359487,-9.640783
22.54,1.895476,-0.392167,-9.640783
22.56,1.895476,-0.490209,-9.640783
22.58,1.928157,-0.457529,-9.673464
22.6,1.928157,-0.359487,-9.673464
22.62,1.862795,-0.392167,-9.706144
22.64,1.895476,-0.424848,-9.706144
22.66,1.895476,-0.392167,-9.706144
22.68,1.928157,-0.359487,-9.706144
22.7,1.895476,-0.424848,-9.673463
22.72,1.830115,-0.424848,-9.706144
22.74,1.862795,-0.424848,-9.738824
22.76,1.928157,-0.424848,-9.706144
22.78,1.928157,-0.392167,-9.706144
22.8,1.895476,-0.359487,-9.706144
22.82,1.895476,-0.392167,-9.706144
22.84,1.928157,-0.424848,-9.706144
22.86,1.895476,-0.424848,-9.706144
22.88,1.895476,-0.392167,-9.706144
22.9,1.928157,-0.424848,-9.706144
22.92,1.895476,-0.424848,-9.673463
22.94,1.928157,-0.457529,-9.738824
22.96,1.895476,-0.392167,-9.706144
22.98,1.895476,-0.392167,-9.706144
23,1.928157,-0.392167,-9.706144
23.02,1.928157,-0.424848,-9.673463
23.04,1.862795,-0.392167,-9.706144
23.06,1.862795,-0.359487,-9.738824
23.08,1.862795,-0.359487,-9.673463
23.1,1.895476,-0.392167,-9.706144
23.12,1.862795,-0.457529,-9.673463
23.14,1.862795,-0.392167,-9.673463
23.16,1.928157,-0.326806,-9.673463
23.18,1.928157,-0.392167,-9.673463
23.2,1.895476,-0.424848,-9.673463
23.22,1.895476,-0.392167,-9.673463
23.24,1.895476,-0.359487,-9.673463
23.26,1.895476,-0.392167,-9.673463
23.28,1.895476,-0.424848,-9.706144
23.3,1.895476,-0.424848,-9.673463
23.32,1.862795,-0.392167,-9.673463
23.34,1.895476,-0.392167,-9.640783
23.36,1.895476,-0.359487,-9.673463
23.38,1.862795,-0.424848,-9.706144
23.4,1.830115,-0.392167,-9.640783
23.42,1.895476,-0.392167,-9.673463
23.44,1.928157,-0.392167,-9.673463
23.46,1.862795,-0.424848,-9.640783
23.48,1.862795,-0.424848,-9.706144
23.5,1.862795,-0.359487,-9.640783
23.52,1.928157,-0.359487,-9.640783
23.54,1.895476,-0.359487,-9.673463
23.56,1.862795,-0.424848,-9.673463
23.58,1.895476,-0.424848,-9.706144
23.6,1.928157,-0.359487,-9.673463
23.62,1.895476,-0.392167,-9.706144
23.64,1.895476,-0.359487,-9.706144
23.66,1.895476,-0.392167,-9.673463
23.68,1.928157,-0.359487,-9.706144
23.7,1.895476,-0.392167,-9.706144
23.72,1.928157,-0.424848,-9.640783
23.74,1.928157,-0.457529,-9.771505
23.76,1.862795,-0.424848,-9.640783
23.78,1.928157,-0.359487,-9.738824
23.8,1.928157,-0.392167,-9.706144
23.82,1.895476,-0.424848,-9.706144
23.84,1.928157,-0.359487,-9.706144
23.86,1.895476,-0.392167,-9.706144
23.88,1.862795,-0.392167,-9.673463
23.9,1.928157,-0.392167,-9.706144
23.92,1.895476,-0.457529,-9.673463
23.94,1.928157,-0.392167,-9.738824
23.96,1.862795,-0.392167,-9.706144
23.98,1.895476,-0.392167,-9.706144
24,1.928157,-0.424848,-9.706144
24.02,1.895476,-0.359487,-9.706144
24.04,1.862795,-0.392167,-9.673463
24.06,1.862795,-0.424848,-9.706144
24.08,1.895476,-0.392167,-9.673463
24.1,1.928157,-0.392167,-9.640783
24.12,1.895476,-0.392167,-9.706144
24.14,1.895476,-0.424848,-9.640783
24.16,1.895476,-0.326806,-9.640783
24.18,1.895476,-0.359487,-9.673463
24.2,1.862795,-0.424848,-9.608102
24.22,1.895476,-0.424848,-9.706144
24.24,1.895476,-0.359487,-9.673463
24.26,1.895476,-0.392167,-9.673463
24.28,1.928157,-0.359487,-9.673463
24.3,1.895476,-0.392167,-9.640783
24.32,1.895476,-0.424848,-9.640783
24.34,1.928157,-0.392167,-9.673463
24.36,1.862795,-0.359487,-9.640783
24.38,1.928157,-0.424848,-9.673463
24.4,1.928157,-0.392167,-9.673463
24.42,1.895476,-0.359487,-9.673463
24.44,1.895476,-0.359487,-9.706144
24.46,1.895476,-0.392167,-9.673463
24.48,1.895476,-0.392167,-9.673463
24.5,1.895476,-0.424848,-9.640783
24.52,1.895476,-0.392167,-9.640783
24.54,1.928157,-0.359487,-9.640783
24.56,1.895476,-0.392167,-9.673463
24.58,1.895476,-0.424848,-9.673463
24.6,1.895476,-0.424848,-9.706144
24.62,1.928157,-0.359487,-9.673463
24.64,1.895476,-0.359487,-9.706144
24.66,1.895476,-0.392167,-9.738824
24.68,1.895476,-0.424848,-9.706144
24.7,1.895476,-0.490209,-9.706144
24.72,1.928157,-0.392167,-9.673464
24.74,1.928157,-0.359487,-9.673464
24.76,1.928157,-0.392167,-9.673464
24.78,1.895476,-0.457529,-9.673464
24.8,1.928157,-0.424848,-9.706144
24.82,1.895476,-0.392167,-9.673464
24.84,1.895476,-0.326806,-9.673464
24.86,1.928157,-0.392167,-9.706144
24.88,1.862795,-0.424848,-9.706144
24.9,1.895476,-0.424848,-9.706144
24.92,1.928157,-0.392167,-9.706144
24.94,1.928157,-0.359487,-9.706144
24.96,1.895476,-0.392167,-9.706144
24.98,1.928157,-0.457529,-9.706144
25,1.928157,-0.392167,-9.706144
25.02,1.895476,-0.392167,-9.673464
25.04,1.895476,-0.457529,-9.706144
25.06,1.862795,-0.424848,-9.673464
25.08,1.895476,-0.424848,-9.673464
25.1,1.928157,-0.326806,-9.640782
25.12,1.895476,-0.359487,-9.640782
25.14,1.895476,-0.424848,-9.673464
25.16,1.862795,-0.457529,-9.640782
25.18,1.895476,-0.392167,-9.673464
25.2,1.928157,-0.359487,-9.673464
25.22,1.895476,-0.392167,-9.640782
25.24,1.928157,-0.424848,-9.706144
25.26,1.862795,-0.424848,-9.640782
25.28,1.895476,-0.392167,-9.640782
25.3,1.895476,-0.326806,-9.640782
25.32,1.928157,-0.392167,-9.640782
25.34,1.862795,-0.424848,-9.673464
25.36,1.895476,-0.392167,-9.706144
25.38,1.895476,-0.392167,-9.673464
25.4,1.928157,-0.359487,-9.673464
25.42,1.895476,-0.392167,-9.640782
25.44,1.895476,-0.424848,-9.640782
25.46,1.928157,-0.359487,-9.673464
25.48,1.862795,-0.359487,-9.673464
25.5,1.830115,-0.392167,-9.673464
25.52,1.928157,-0.424848,-9.673464
25.54,1.928157,-0.424848,-9.673464
25.56,1.895476,-0.359487,-9.673464
25.58,1.928157,-0.326806,-9.706144
25.6,1.895476,-0.359487,-9.706144
25.62,1.895476,-0.392167,-9.706144
25.64,1.895476,-0.457529,-9.706144
25.66,1.895476,-0.359487,-9.706144
25.68,1.928157,-0.392167,-9.706144
25.7,1.928157,-0.392167,-9.706144
25.72,1.928157,-0.424848,-9.673463
25.74,1.895476,-0.392167,-9.706144
25.76,1.895476,-0.392167,-9.706144
25.78,1.928157,-0.392167,-9.706144
25.8,1.895476,-0.392167,-9.706144
25.82,1.928157,-0.424848,-9.706144
25.84,1.928157,-0.424848,-9.706144
25.86,1.928157,-0.424848,-9.706144
25.88,1.928157,-0.424848,-9.706144
25.9,1.928157,-0.392167,-9.706144
25.92,1.928157,-0.457529,-9.706144
25.94,1.895476,-0.424848,-9.706144
25.96,1.895476,-0.424848,-9.706144
25.98,1.895476,-0.359487,-9.706144
26,1.928157,-0.424848,-9.706144
26.02,1.895476,-0.424848,-9.738825
26.04,1.895476,-0.457529,-9.706144
26.06,1.928157,-0.392167,-9.706144
26.08,1.960837,-0.392167,-9.706144
26.1,1.862795,-0.392167,-9.673463
26.12,1.862795,-0.392167,-9.673463
26.14,1.895476,-0.392167,-9.673463
26.16,1.895476,-0.392167,-9.640783
26.18,1.862795,-0.359487,-9.673463
26.2,1.862795,-0.392167,-9.673463
26.22,1.895476,-0.424848,-9.673463
26.24,1.895476,-0.424848,-9.640783
26.26,1.862795,-0.392167,-9.673463
26.28,1.862795,-0.359487,-9.640783
26.3,1.862795,-0.457529,-9.640783
26.32,1.862795,-0.424848,-9.673463
26.34,1.862795,-0.424848,-9.673463
26.36,1.895476,-0.359487,-9.673463
26.38,1.895476,-0.392167,-9.640783
26.4,1.895476,-0.424848,-9.673463
26.42,1.895476,-0.392167,-9.673463
26.44,1.895476,-0.392167,-9.640783
26.46,1.928157,-0.392167,-9.673463
26.48,1.862795,-0.424848,-9.673463
26.5,1.895476,-0.392167,-9.706144
26.52,1.895476,-0.392167,-9.640783
26.54,1.895476,-0.359487,-9.673463
26.56,1.895476,-0.326806,-9.673463
26.58,1.895476,-0.326806,-9.673463
26.6,1.895476,-0.392167,-9.706144
26.62,1.895476,-0.392167,-9.706144
26.64,1.895476,-0.424848,-9.706144
26.66,1.895476,-0.392167,-9.706144
26.68,1.928157,-0.392167,-9.706144
26.7,1.928157,-0.392167,-9.706144
26.72,1.895476,-0.392167,-9.706144
26.74,1.895476,-0.392167,-9.706144
26.76,1.928157,-0.392167,-9.706144
26.78,1.895476,-0.392167,-9.706144
26.8,1.895476,-0.392167,-9.706144
26.82,1.928157,-0.392167,-9.706144
26.84,1.928157,-0.392167,-9.706144
26.86,1.895476,-0.392167,-9.706144
26.88,1.895476,-0.392167,-9.706144
26.9,1.928157,-0.424848,-9.673464
26.92,1.928157,-0.457529,-9.706144
26.94,1.928157,-0.424848,-9.706144
26.96,1.928157,-0.359487,-9.706144
26.98,1.895476,-0.424848,-9.706144
27,1.895476,-0.424848,-9.706144
27.02,1.895476,-0.392167,-9.706144
27.04,1.928157,-0.392167,-9.706144
27.06,1.895476,-0.424848,-9.706144
27.08,1.928157,-0.392167,-9.738825
27.1,1.895476,-0.392167,-9.706144
27.12,1.895476,-0.424848,-9.706144
27.14,1.928157,-0.359487,-9.673464
27.16,1.862795,-0.359487,-9.673464
27.18,1.895476,-0.424848,-9.673464
27.2,1.928157,-0.424848,-9.640783
27.22,1.928157,-0.392167,-9.673464
27.24,1.928157,-0.392167,-9.673464
27.26,1.895476,-0.326806,-9.640783
27.28,1.928157,-0.359487,-9.706144
27.3,1.928157,-0.392167,-9.673464
27.32,1.960837,-0.424848,-9.673464
27.34,1.895476,-0.392167,-9.673464
27.36,1.895476,-0.359487,-9.640783
27.38,1.960837,-0.392167,-9.673464
27.4,1.895476,-0.424848,-9.640783
27.42,1.895476,-0.424848,-9.673464
27.44,1.862795,-0.359487,-9.673464
27.46,1.895476,-0.392167,-9.640783
27.48,1.895476,-0.424848,-9.673464
27.5,1.928157,-0.392167,-9.706144
27.52,1.862795,-0.359487,-9.640783
27.54,1.895476,-0.359487,-9.640783
27.56,1.895476,-0.392167,-9.706144
27.58,1.895476,-0.424848,-9.640783
27.6,1.895476,-0.359487,-9.706144
27.62,1.928157,-0.392167,-9.706144
27.64,1.928157,-0.424848,-9.706144
27.66,1.895476,-0.424848,-9.706144
27.68,1.895476,-0.392167,-9.706144
27.7,1.928157,-0.392167,-9.706144
27.72,1.895476,-0.392167,-9.706144
27.74,1.862795,-0.359487,-9.673463
27.76,1.895476,-0.392167,-9.706144
27.78,1.862795,-0.359487,-9.706144
27.8,1.895476,-0.392167,-9.706144
27.82,1.895476,-0.392167,-9.706144
27.84,1.862795,-0.392167,-9.706144
27.86,1.928157,-0.424848,-9.706144
27.88,1.895476,-0.392167,-9.706144
27.9,1.895476,-0.359487,-9.673463
27.92,1.928157,-0.392167,-9.706144
27.94,1.895476,-0.424848,-9.706144
27.96,1.895476,-0.457529,-9.706144
27.98,1.895476,-0.392167,-9.706144
28,1.895476,-0.392167,-9.673463
28.02,1.895476,-0.392167,-9.706144
28.04,1.797434,-0.424848,-9.738825
28.06,1.928157,-0.392167,-9.673463
28.08,1.928157,-0.392167,-9.706144
28.1,1.928157,-0.326806,-9.673463
28.12,1.928157,-0.359487,-9.738825
28.14,1.895476,-0.457529,-9.640783
28.16,1.960837,-0.326806,-9.673463
28.18,1.862795,-0.261445,-9.673463
28.2,1.993518,-0.424848,-9.738825
28.22,2.026198,-0.163403,-9.673463
28.24,1.928157,-0.294126,-9.673463
28.26,1.862795,-0.196084,-9.673463
28.28,2.026198,-0.718974,-9.738825
28.3,1.797434,-0.588251,-9.673463
28.32,1.960837,-0.52289,-9.934908
28.34,2.058879,-0.359487,-9.673463
28.36,1.993518,-0.163403,-9.706144
28.38,1.895476,-0.326806,-9.706144
28.4,1.830115,-0.163403,-9.608102
28.42,1.830115,-0.457529,-9.869547
28.44,2.222282,-0.980419,-9.575422
28.46,2.12424,-0.980419,-9.608102
28.48,1.503309,-0.457529,-9.738825
28.5,1.830115,-0.294126,-9.575422
28.52,1.764753,-0.588251,-9.771506
28.54,1.928157,-0.588251,-9.608102
28.56,1.928157,-0.424848,-9.771506
28.58,1.895476,-0.196084,-9.608102
28.6,1.862795,-0.490209,-9.673463
28.62,1.928157,-0.424848,-9.706144
28.64,1.797434,-0.359487,-9.673463
28.66,1.862795,-0.424848,-9.673463
28.68,1.895476,-0.424848,-9.673463
28.7,1.928157,-0.359487,-9.706144
28.72,1.928157,-0.392167,-9.673464
28.74,1.830115,-0.359487,-9.738825
28.76,1.895476,-0.424848,-9.706144
28.78,1.960837,-0.359487,-9.771505
28.8,1.862795,-0.424848,-9.673464
28.82,1.862795,-0.392167,-9.771505
28.84,1.928157,-0.392167,-9.706144
28.86,1.928157,-0.392167,-9.706144
28.88,1.928157,-0.326806,-9.706144
28.9,1.862795,-0.555571,-9.706144
28.92,1.862795,-0.457529,-9.706144
28.94,2.026198,-0.196084,-9.706144
28.96,2.09156,-0.751654,-9.804186
28.98,1.895476,-0.555571,-9.575421
29,1.960837,-0.392167,-9.804186
29.02,1.895476,-0.424848,-9.640783
29.04,1.862795,-0.130722,-9.706144
29.06,1.993518,-0.326806,-9.804186
29.08,1.764753,-0.849696,-9.706144
29.1,1.764753,-0.392167,-9.640783
29.12,1.830115,-0.261445,-9.706144
29.14,1.960837,-0.294126,-9.706144
29.16,1.732073,-0.424848,-9.706144
29.18,1.993518,-0.457529,-9.673464
29.2,2.026198,-0.228764,-9.673464
29.22,2.09156,-0.490209,-9.673464
29.24,1.993518,-0.359487,-9.640783
29.26,2.026198,-0.424848,-9.706144
29.28,2.12424,-0.392167,-9.575421
29.3,2.09156,-0.326806,-9.640783
29.32,2.058879,-0.490209,-9.738825
29.34,1.830115,0.196084,-9.51006
29.36,2.189602,0.196084,-9.673464
29.38,2.254963,-0.980419,-9.608102
29.4,1.993518,0.261445,-9.608102
29.42,1.732073,-0.065361,-9.738825
29.44,1.928157,0.032681,-9.706144
29.46,2.64713,-0.163403,-9.706144
29.48,2.549088,-0.588251,-9.640783
29.5,2.581769,-0.163403,-9.215935
29.52,2.843214,-0.326806,-9.673464
29.54,2.712491,-0.490209,-9.608102
29.56,2.745172,-0.294126,-9.444699
29.58,2.908575,-0.588251,-9.575421
29.6,2.973936,-0.52289,-9.738825
29.62,3.006617,-0.326806,-9.673464
29.64,2.810533,-0.326806,-9.673464
29.66,2.973936,-0.359487,-9.47738
29.68,3.039298,-0.784335,-9.346658
29.7,3.333423,-0.261445,-9.640783
29.72,3.300743,-0.326806,-9.444699
29.74,3.268062,-0.326806,-9.771505
29.76,3.69291,-0.457529,-9.412019
29.78,3.69291,-0.130722,-9.150574
29.8,3.366104,-0.228764,-9.608103
29.82,3.529507,-0.359487,-9.869547
29.84,3.758271,-0.555571,-9.215935
29.86,3.888994,-0.555571,-8.856448
29.88,4.117758,-0.294126,-9.47738
29.9,4.248481,-0.359487,-9.379338
29.92,4.706009,-0.490209,-9.444699
29.94,4.706009,0.196084,-9.444699
29.96,4.575287,-0.52289,-9.019851
29.98,4.607967,-0.653612,-8.921809
30,4.836732,-0.326806,-9.085213
30.02,4.902093,0.032681,-10.55584
30.04,4.77137,0,-9.444699
30.06,4.411884,-0.490209,-8.856448
30.08,4.607967,-0.686293,-9.869547
30.1,4.706009,-0.424848,-8.98717
30.12,4.673329,-0.392167,-9.019851
30.14,4.73869,-0.457529,-9.379338
30.16,4.640648,-0.718974,-9.738825
30.18,4.640648,-0.718974,-10.098311
30.2,4.444564,-0.326806,-10.261715
30.22,4.411884,-0.555571,-9.640783
30.24,4.411884,-0.032681,-8.725725
30.26,4.2158,-0.098042,-8.300877
30.28,4.117758,-0.620932,-9.379338
30.3,3.888994,-0.882377,-9.542741
30.32,3.987036,-0.784335,-10.392437
30.34,3.856313,-0.947738,-10.457798
30.36,3.856313,-0.653612,-8.98717
30.38,3.594868,-0.980419,-8.856448
30.4,3.69291,-0.784335,-9.117893
30.42,3.366104,-1.013099,-9.902228
30.44,3.366104,-0.947738,-10.686562
30.46,3.300743,-0.718974,-9.379338
30.48,2.973936,-0.555571,-7.90871
30.5,3.006617,-1.143822,-8.4316
30.52,3.006617,-1.013099,-9.706144
30.54,3.202701,-0.490209,-11.372856
30.56,3.006617,-0.686293,-9.738825
30.58,2.973936,-0.817015,-8.202836
30.6,3.006617,-1.372586,-8.856448
30.62,3.17002,-1.143822,-10.52316
30.64,2.908575,-0.326806,-10.751924
30.66,2.679811,-0.588251,-8.98717
30.68,2.581769,-0.686293,-8.235516
30.7,3.006617,-0.947738,-8.987171
30.72,3.006617,-0.718974,-10.849966
30.74,2.712491,-0.261445,-10.457799
30.76,2.516408,-0.457529,-8.627683
30.78,2.385685,-0.718974,-8.235516
30.8,2.679811,-0.980419,-9.379338
30.82,2.777853,-0.359487,-11.144091
30.84,2.320324,-0.326806,-8.954489
30.86,2.712491,-0.424848,-8.170155
30.88,2.451047,-0.163403,-9.902228
30.9,2.745172,1.078461,-11.536258
30.92,3.071978,0.163403,-9.640783
30.94,2.810533,-0.424848,-7.712626
30.96,2.64713,-0.424848,-8.758406
30.98,2.549088,0.490209,-11.144091
31,2.026198,-0.032681,-10.392437
31.02,2.483727,-0.294126,-8.529642
31.04,2.156921,0.261445,-9.248616
31.06,2.156921,0.52289,-11.144091
31.08,2.320324,0.490209,-10.52316
31.1,2.320324,0.261445,-8.823767
31.12,2.222282,-0.163403,-9.085212
31.14,1.928157,0.163403,-11.07873
31.16,1.960837,0.555571,-10.359756
31.18,2.09156,-0.163403,-8.758406
31.2,1.895476,0.130722,-8.791087
31.22,2.09156,0.228764,-11.07873
31.24,1.928157,0.065361,-10.588521
31.26,1.993518,0.032681,-8.268197
31.28,1.830115,-0.065361,-9.117893
31.3,2.058879,0.620932,-11.56894
31.32,1.764753,0,-10.425118
31.34,1.797434,-0.032681,-7.941391
31.36,1.797434,0,-8.595003
31.38,1.928157,0.392167,-10.457799
31.4,1.830115,-0.065361,-10.130993
31.42,1.60135,-0.228764,-8.464281
31.44,1.60135,0,-9.248616
31.46,1.830115,0.751654,-11.863065
31.48,1.699392,0.457529,-10.327076
31.5,1.503309,0,-8.039432
31.52,1.634031,0.588251,-8.39892
31.54,1.862795,0.849696,-10.751924
31.56,1.830115,0.261445,-10.751924
31.58,1.535989,0,-8.954489
31.6,1.60135,0.065361,-9.150573
31.62,1.732073,0.817015,-11.209452
31.64,1.437947,0.392167,-10.130993
31.66,1.372586,0.228764,-8.4316
31.68,1.503309,0.588251,-8.725726
31.7,1.666712,1.307225,-10.261714
31.72,1.503308,0.326806,-10.163673
31.74,1.307225,-0.130722,-8.693045
31.76,1.339905,0.326806,-8.202835
31.78,1.56867,1.111141,-10.392437
31.8,1.634031,0.784335,-10.719243
31.82,1.405267,0.294126,-9.412019
31.84,1.437947,0.457529,-8.725725
31.86,1.437947,0.915057,-10.130992
31.88,1.535989,0.588251,-10.751924
31.9,1.437947,0.032681,-8.921809
31.92,1.372586,-0.032681,-8.823767
31.94,1.339905,0.882377,-10.032951
31.96,1.470628,0.555571,-10.261714
31.98,1.143822,-0.196084,-9.346657
32,0.947738,-0.032681,-9.150574
32.02,1.274544,0.555571,-9.640783
32.04,1.241864,1.241864,-10.229034
32.06,1.634031,0.261445,-9.542741
32.08,1.372586,-0.228764,-9.117893
32.1,1.405267,-0.065361,-9.4447
32.12,1.307225,0.915057,-10.196353
32.14,1.274544,0.196084,-10.130992
32.16,1.241864,-0.457529,-9.248616
32.18,1.274544,-0.228764,-9.542741
32.2,1.307225,0.457529,-10.588521
32.22,1.274544,0.588251,-10.784604
32.24,1.111141,-0.065361,-9.052531
32.26,1.111141,-0.490209,-9.052531
32.28,1.307225,-0.163403,-9.902228
32.3,1.339905,0.392167,-10.490479
32.32,1.307225,0.228764,-9.771506
32.34,1.372586,-0.424848,-8.660364
32.36,1.372586,-0.326806,-9.346657
32.38,1.405267,0,-10.490479
32.4,1.470628,0.130722,-10.653882
32.42,1.274544,-0.424848,-9.412019
32.44,1.372586,-0.817015,-8.823767
32.46,1.503308,-0.882377,-9.640783
32.48,1.666712,0.130722,-10.621202
32.5,1.928157,0,-10.098312
32.52,1.437947,-0.52289,-9.117893
32.54,1.503308,-0.653612,-8.98717
32.56,1.830115,-0.817015,-10.327076
32.58,1.862795,0,-10.588521
32.6,1.830115,0.032681,-10.098312
32.62,1.60135,-0.784335,-8.889129
32.64,1.830115,-0.980419,-9.412019
32.66,1.895476,-0.490209,-10.327076
32.68,1.960837,0.196084,-10.065631
32.7,1.830115,-0.261445,-9.313977
32.72,1.732073,-0.653612,-9.215935
32.74,1.732073,-1.04578,-9.673463
32.76,1.60135,-0.555571,-10.130992
32.78,1.797434,-0.392167,-10.457798
32.8,1.634031,-0.686293,-9.412019
32.82,1.699392,-1.07846,-9.150574
32.84,1.699392,-1.241864,-9.902228
32.86,1.830115,-0.849696,-9.967589
32.88,1.732073,-0.588251,-10.621202
32.9,1.634031,-0.882377,-9.608102
32.92,1.666712,-1.176502,-9.4447
32.94,1.634031,-0.980419,-9.640783
32.96,1.60135,-0.392167,-10.098312
32.98,1.56867,-0.065361,-10.621202
33,1.60135,-0.817015,-9.281296
33.02,1.634031,-1.07846,-8.921809
33.04,1.470628,-1.07846,-9.346657
33.06,1.470628,-0.653612,-10.229034
33.08,1.470628,-0.686293,-10.163673
33.1,1.535989,-0.980419,-9.215935
33.12,1.470628,-0.784335,-9.117893
33.14,1.470628,-0.718974,-9.706145
33.16,1.470628,-0.457529,-10.817285
33.18,1.666712,-0.849696,-10.653882
33.2,1.666712,-1.111141,-9.215935
33.22,1.56867,-1.143822,-9.313977
33.24,1.60135,-0.882377,-9.412019
33.26,1.732073,-0.490209,-10.686563
33.28,1.732073,-0.588251,-10.392437
33.3,1.535989,-1.04578,-9.510061
33.32,1.535989,-1.111141,-9.510061
33.34,1.535989,-0.849696,-9.248616
33.36,1.503309,-0.359487,-10.229034
33.38,1.372586,-0.653612,-10.882647
33.4,1.405267,-1.04578,-9.673463
33.42,1.503309,-0.817015,-9.542741
33.44,1.437947,-0.392167,-9.412019
33.46,1.634031,0.065361,-10.621202
33.48,1.535989,-0.261445,-9.934908
33.5,1.470628,-0.718974,-9.412019
33.52,1.470628,-0.686293,-9.412019
33.54,1.764753,-0.751654,-9.542741
33.56,1.535989,0.130722,-10.327076
33.58,1.56867,-0.065361,-10.686563
33.6,1.56867,-0.784335,-9.019851
33.62,1.60135,-0.947738,-9.412019
33.64,1.732073,-0.817015,-9.510061
33.66,1.634031,-0.784335,-10.457798
33.68,1.699392,-0.915057,-10.327076
33.7,1.60135,-0.980419,-9.346657
33.72,1.470628,-1.07846,-9.346657
33.74,1.437947,-1.04578,-9.771506
33.76,1.535989,-0.359487,-10.327076
33.78,1.56867,-0.228764,-10.653882
33.8,1.503309,-0.457529,-8.98717
33.82,1.470628,-0.718974,-9.47738
33.84,1.470628,-0.294126,-8.758406
33.86,1.666712,-0.130722,-9.444699
33.88,1.699392,0.032681,-10.882647
33.9,1.699392,-0.326806,-9.934908
33.92,1.56867,-0.294126,-8.791086
33.94,1.503309,-0.196084,-8.98717
33.96,1.830115,-0.52289,-9.640783
33.98,1.764753,-0.065361,-10.457798
34,1.437947,-0.228764,-9.934908
34.02,1.60135,-0.653612,-9.412019
34.04,1.372586,-0.52289,-9.412019
34.06,1.732073,-0.261445,-9.313976
34.08,1.535989,0.228764,-10.00027
34.1,1.895476,0.098042,-10.457798
34.12,1.405267,-0.163403,-9.575422
34.14,1.732073,-0.751654,-9.444699
34.16,1.666712,-0.359487,-9.575422
34.18,1.699392,0.196084,-9.346657
34.2,1.797434,0.228764,-10.882647
34.22,1.56867,-0.294126,-9.934908
34.24,1.56867,-0.588251,-8.823768
34.26,1.60135,-0.588251,-9.47738
34.28,1.699392,-0.228764,-9.836867
34.3,1.666712,0.718974,-9.934908
34.32,1.535989,0.261445,-9.738825
34.34,1.56867,-0.228764,-9.281296
34.36,1.764753,-0.424848,-9.281296
34.38,1.666712,-0.392167,-10.098312
34.4,1.732073,0.261445,-9.313976
34.42,1.764753,0.392167,-10.032951
34.44,1.535989,-0.359487,-9.510061
34.46,1.764753,-0.718974,-8.98717
34.48,1.830115,-0.424848,-10.196353
34.5,1.699392,-0.065361,-10.294396
34.52,1.764753,0.653612,-10.457798
34.54,1.56867,0.392167,-10.098312
34.56,1.405267,-0.130722,-9.771506
34.58,1.470628,-0.326806,-9.183254
34.6,1.535989,-0.588251,-10.392437
34.62,1.503309,0.163403,-10.261715
34.64,1.535989,0.653612,-10.261715
34.66,1.470628,-0.261445,-9.869547
34.68,1.470628,-0.294126,-8.595003
34.7,1.732073,-0.294126,-9.934908
34.72,1.372586,-0.457529,-9.804186
34.74,1.732073,0,-10.098312
34.76,1.764754,0.326806,-9.869547
34.78,1.699392,-0.261445,-9.771505
34.8,1.666712,-0.457529,-9.444699
34.82,1.732073,-0.424848,-9.804186
34.84,1.60135,-0.261445,-9.902228
34.86,1.732073,0.098042,-10.196353
34.88,1.732073,0.196084,-10.03295
34.9,1.699392,-0.359487,-9.150573
34.92,1.797434,-0.392167,-9.346657
34.94,1.797434,-0.359487,-9.934908
34.96,1.862795,-0.424848,-10.000269
34.98,1.928157,0.098042,-10.915327
35,1.830115,0.326806,-9.771505
35.02,1.764754,-0.718974,-9.510061
35.04,1.830115,-0.849696,-8.987171
35.06,1.895476,-0.294126,-9.934908
35.08,1.830115,-0.817015,-10.163673
35.1,1.764754,-0.261445,-9.738824
35.12,1.764754,-0.098042,-10.03295
35.14,1.993518,-0.032681,-9.738824
35.16,2.09156,-0.032681,-9.902228
35.18,1.60135,1.56867,-12.353274
35.2,1.470628,-0.261445,-9.019851
35.22,1.797434,-0.980419,-6.536124
35.24,1.07846,-2.222282,-10.490479
35.26,1.274544,-3.268062,-15.000405
35.28,1.405267,0.032681,-8.072114
35.3,1.666712,0.620932,-4.411884
35.32,2.222282,-0.196084,-7.353139
35.34,2.385685,-0.294126,-12.09183
35.36,2.353005,-0.261445,-11.699662
35.38,2.12424,-0.065361,-8.791087
35.4,2.026198,0.326806,-7.679946
35.42,2.451046,0.032681,-8.562322
35.44,2.451046,-0.653612,-10.359757
35.46,2.451046,-0.751654,-9.150573
35.48,2.451046,-0.261445,-9.869547
35.5,2.483727,0.228764,-10.980689
35.52,2.385685,0.130722,-8.889128
35.54,2.385685,0.294126,-8.006752
35.56,2.516408,0.065361,-9.477379
35.58,2.483727,-0.130722,-10.03295
35.6,2.189602,-0.228764,-9.379338
35.62,2.418366,0,-10.229034
35.64,2.418366,0.098042,-10.359757
35.66,2.09156,-0.392167,-9.804186
35.68,2.516408,0.196084,-8.235516
35.7,2.418366,0.751654,-9.706144
35.72,2.254963,0.196084,-10.457799
35.74,2.385685,0.52289,-9.313977
35.76,2.549088,0.359487,-9.117893
35.78,2.09156,-0.294126,-10.425117
35.8,2.156921,-0.424848,-9.640783
35.82,2.287643,0.228764,-8.137474
35.84,2.156921,0.490209,-9.738825
35.86,2.320324,0.817016,-10.425117
35.88,2.189602,0.915057,-10.130992
35.9,2.058879,0.196084,-9.640783
35.92,2.026198,-0.392167,-8.595003
35.94,2.156921,-0.032681,-9.117893
35.96,2.189602,0.261445,-9.379338
35.98,2.385685,0.588251,-10.130992
36,2.222282,1.176502,-10.130992
36.02,2.12424,0.817016,-9.412019
36.04,2.189602,0.261445,-8.4316
36.06,2.287643,0.424848,-9.804186
36.08,2.320324,0.588251,-9.47738
36.1,2.385685,1.013099,-9.47738
36.12,2.254963,0.882377,-10.686562
36.14,2.287643,0.52289,-8.95449
36.16,2.09156,0.294126,-8.921809
36.18,2.12424,0.620932,-9.640783
36.2,2.058879,0.686293,-9.967589
36.22,2.222282,0.882377,-10.261715
36.24,2.12424,0.653612,-9.771505
36.26,1.928157,0,-8.889129
36.28,1.895476,0.457529,-9.019852
36.3,2.026198,0.653612,-10.065631
36.32,2.058879,1.111141,-10.621201
36.34,2.09156,1.56867,-10.425117
36.36,2.026198,0.718974,-8.595003
36.38,1.993518,0.359487,-8.595003
36.4,2.12424,0.52289,-9.673464
36.42,2.12424,0.849696,-10.327076
36.44,2.12424,1.503309,-10.849966
36.46,1.960837,1.07846,-9.248615
36.48,1.993518,0.718974,-8.072113
36.5,2.12424,0.817016,-9.117893
36.52,2.189602,0.817016,-10.261715
36.54,2.320324,1.274544,-10.915327
36.56,2.058879,0.882377,-10.196354
36.58,2.058879,0.261445,-8.235516
36.6,2.156921,0.751654,-8.529642
36.62,2.12424,1.04578,-9.869548
36.64,2.189602,1.634031,-11.04605
36.66,2.156921,0.751654,-10.294395
36.68,2.026198,-0.098042,-9.019851
36.7,2.12424,0.424848,-8.235516
36.72,2.12424,0.653612,-9.804186
36.74,2.320324,1.307225,-11.013369
36.76,2.12424,1.111141,-10.03295
36.78,1.993518,0.163403,-8.889128
36.8,2.058879,0.326806,-8.987171
36.82,1.960837,0.718974,-9.281296
36.84,2.058879,1.209183,-10.915327
36.86,1.960837,0.718974,-10.425118
36.88,1.830115,0.098042,-8.95449
36.9,1.993518,0.424848,-9.117893
36.92,2.189602,0.915057,-9.608102
36.94,2.222282,1.405267,-10.653882
36.96,2.12424,0.784335,-10.03295
36.98,2.222282,0.065361,-8.464281
37,2.058879,0.032681,-9.346657
37.02,2.385685,0.620932,-9.902228
37.04,2.385685,1.503309,-10.52316
37.06,2.189602,0.588251,-9.346657
37.08,2.12424,-0.098042,-8.595003
37.1,2.287643,0.130722,-9.738824
37.12,2.385685,0.849696,-10.098312
37.14,2.222282,1.176502,-10.294395
37.16,2.156921,0.196084,-9.281296
37.18,2.09156,-0.424848,-8.791087
37.2,2.222282,0.065361,-9.836867
37.22,2.353005,0.751654,-10.751924
37.24,2.12424,0.718974,-10.229034
37.26,2.09156,0.032681,-8.889128
37.28,2.026198,-0.130722,-8.791087
37.3,2.353005,0.196084,-10.490479
37.32,2.320324,1.04578,-10.719244
37.34,2.09156,0.326806,-8.95449
37.36,2.287643,-0.228764,-8.693045
37.38,2.451046,-0.098042,-9.804186
37.4,2.320324,0.686293,-11.274814
37.42,2.254963,0.52289,-10.03295
37.44,2.156921,0.130722,-8.268197
37.46,2.451046,0.261445,-8.529642
37.48,2.483727,0.261445,-10.817285
37.5,2.353005,0.784335,-10.817285
37.52,2.09156,-0.032681,-8.366239
37.54,2.189602,0.294126,-8.268197
37.56,2.254963,0.326806,-10.784605
37.58,2.353005,0.653612,-11.307495
37.6,2.287643,0.163403,-8.95449
37.62,2.385685,0.228764,-8.072113
37.64,2.385685,0.065361,-9.738824
37.66,2.549088,0.686293,-11.732342
37.68,2.353005,0.228764,-9.117893
37.7,2.156921,-0.424848,-7.647265
37.72,2.287643,-0.294126,-9.215935
37.74,2.483727,0.718974,-11.470898
37.76,2.287643,-0.196084,-9.869547
37.78,2.222282,-0.130722,-7.745307
37.8,2.516408,0.130722,-8.987171
37.82,2.61445,0.718974,-11.666981
37.84,2.353005,-0.163403,-10.032951
37.86,2.287643,-0.098042,-8.333558
37.88,2.353005,0.359487,-9.183255
37.9,2.385685,0.751654,-11.438217
37.92,2.320324,0.032681,-9.836867
37.94,2.320324,0.032681,-8.006752
37.96,2.353005,0.653612,-9.346657
37.98,2.451046,1.07846,-11.176772
38,2.353005,0,-9.412018
38.02,1.960837,-0.555571,-8.693045
38.04,2.189602,0.751654,-10.098312
38.06,2.385685,0.947738,-10.817285
38.08,2.222282,-0.457529,-9.248616
38.1,2.189602,-0.457529,-8.46428
38.12,2.254963,0.555571,-10.457798
38.14,2.385685,0.620932,-10.849965
38.16,2.09156,-0.065361,-8.660364
38.18,2.058879,-0.196084,-9.346657
38.2,2.320324,0.784335,-10.980688
38.22,2.320324,-0.294126,-9.640783
38.24,2.320324,-0.065361,-8.529641
38.26,2.222282,0.555571,-9.608102
38.28,2.189602,0.686293,-10.392437
38.3,2.189602,-0.032681,-8.791087
38.32,1.993518,0.261445,-8.46428
38.34,2.058879,1.143822,-11.046049
38.36,2.09156,0.294126,-11.07873
38.38,2.156921,-0.490209,-8.856448
38.4,2.254963,0.065361,-8.595003
38.42,2.418366,1.111141,-10.130992
38.44,2.254963,0,-9.902228
38.46,2.12424,-0.032681,-9.052532
38.48,2.09156,1.013099,-10.294396
38.5,2.026198,0.686293,-9.902228
38.52,1.993518,-0.196084,-9.019851
38.54,1.895476,0.228764,-9.542741
38.56,2.058879,0.686293,-10.359757
38.58,1.862795,-0.359487,-9.379338
38.6,1.862795,-0.228764,-8.889129
38.62,2.058879,0.52289,-9.934908
38.64,2.09156,0.130722,-10.163673
38.66,1.928157,-0.326806,-8.823767
38.68,2.026198,0.326806,-9.47738
38.7,2.222282,0.555571,-10.588521
38.72,2.189601,-0.261445,-9.51006
38.74,1.895476,-0.196084,-9.706144
38.76,1.993518,0.228764,-10.392437
38.78,1.830115,0.490209,-9.117893
38.8,1.862795,-0.424848,-8.823768
38.82,1.797434,0.228764,-9.771505
38.84,1.960837,0.163403,-10.55584
38.86,2.12424,-0.555571,-8.98717
38.88,1.895476,-0.424848,-9.215935
38.9,2.058879,0.392167,-11.274814
38.92,2.026198,-0.098042,-9.706144
38.94,1.960837,-0.261445,-8.202836
38.96,1.895476,-0.032681,-9.771505
38.98,1.862795,0.065361,-10.425117
39,1.797434,-0.326806,-9.313976
39.02,2.026198,-0.294126,-9.51006
39.04,1.993518,0.620932,-10.621201
39.06,2.058879,-0.424848,-9.673464
39.08,1.928157,-0.620932,-9.117893
39.1,1.830115,0.065361,-10.130992
39.12,1.960837,-0.588251,-9.47738
39.14,1.830115,-0.980419,-8.758407
39.16,1.960837,-0.163403,-10.196354
39.18,2.12424,0.294126,-10.065631
39.2,1.764754,-0.849696,-9.379338
39.22,1.797434,-0.392167,-9.51006
39.24,1.928157,0.620932,-10.52316
39.26,1.60135,-0.359487,-9.575421
39.28,1.732073,-0.392167,-8.464281
39.3,1.797434,0.424848,-9.706144
39.32,1.764754,-0.359487,-11.111411
39.34,1.764754,-0.490209,-11.176772
39.36,1.764754,-0.980419,-11.961107
39.38,1.503308,0,-9.183254
39.4,1.470628,-0.065361,-7.124375
39.42,1.797434,-0.326806,-8.627684
39.44,2.058879,0.457529,-10.686562
39.46,1.60135,-0.261445,-9.608103
39.48,1.862795,-0.294126,-9.313976
39.5,1.797434,0.424848,-10.03295
39.52,1.764754,0.196084,-9.934909
39.54,1.699392,-0.52289,-8.758407
39.56,1.895476,-0.294126,-9.934909
39.58,1.732073,-0.457529,-10.784605
39.6,1.895476,-0.686293,-9.444699
39.62,1.797434,-0.653612,-8.95449
39.64,1.470628,0.490209,-10.915327
39.66,1.241864,-0.130722,-9.575421
39.68,1.535989,-0.620932,-8.95449
39.7,1.732073,0.130722,-11.340175
39.72,1.797434,0,-9.804186
39.74,1.666712,-0.52289,-8.889129
39.76,1.699392,-0.163403,-10.457798
39.78,1.862795,0,-10.098312
39.8,1.699392,-0.457529,-9.313977
39.82,1.862795,-0.457529,-9.4447
39.84,1.666712,0.261445,-10.294395
39.86,1.797434,0.130722,-9.608102
39.88,1.56867,-0.163403,-8.46428
39.9,1.666712,0.032681,-10.294395
39.92,1.732073,-0.163403,-10.359757
39.94,1.732073,-0.294126,-8.4316
39.96,1.56867,-0.065361,-10.196353
39.98,1.732073,0.065361,-10.392437
40,1.60135,-0.751654,-8.595003
40.02,1.634031,-0.392167,-10.000269
40.04,1.993518,0.490209,-11.013369
40.06,1.764753,-0.555571,-9.640783
40.08,1.535989,-1.07846,-9.117893
40.1,1.699392,0.032681,-10.490479
40.12,1.56867,0.098042,-9.967589
40.14,1.830115,0.196084,-8.4316
40.16,1.732073,-0.457529,-10.163673
40.18,1.764753,0.261445,-10.751924
40.2,1.470628,0.098042,-8.889129
40.22,1.470628,0.065361,-9.412018
40.24,1.503309,0.457529,-10.784604
40.26,1.241864,-0.196084,-9.248616
40.28,1.405267,-0.424848,-8.595003
40.3,1.535989,0.130722,-10.784604
40.32,1.437947,-0.163403,-10.457798
40.34,1.209183,-0.751654,-8.693045
40.36,1.307225,-0.032681,-10.163673
40.38,1.732073,0.294126,-10.817285
40.4,1.437947,-0.294126,-8.235516
40.42,1.339905,-0.457529,-9.510061
40.44,1.535989,0.52289,-10.784604
40.46,1.372586,-0.098042,-9.738825
40.48,1.470628,-0.588251,-8.92181
40.5,1.634031,-0.098042,-10.130992
40.52,1.60135,0.294126,-10.882647
40.54,1.339905,-0.294126,-8.92181
40.56,1.209183,-0.163403,-8.889129
40.58,1.56867,-0.032681,-11.242134
40.6,1.830115,-0.196084,-9.412018
40.62,1.732073,-0.294126,-8.072113
40.64,2.12424,0.065361,-10.523159
40.66,1.732073,-0.032681,-10.523159
40.68,1.143822,0.032681,-8.137474
40.7,1.013099,-0.653612,-9.183254
40.72,1.405267,0.392167,-10.686563
40.74,1.307225,0,-9.47738
40.76,1.830115,0.196084,-9.673464
40.78,1.634031,-1.56867,-11.503578
40.8,1.56867,-0.52289,-11.340175
40.82,0.849696,-0.228764,-7.843349
40.84,1.535989,0.032681,-8.595003
40.86,1.339905,0.228764,-11.111411
40.88,1.307225,-0.52289,-9.934908
40.9,1.437947,-0.228764,-8.529642
40.92,1.60135,0.098042,-9.804186
40.94,1.634031,0.294126,-10.948008
40.96,1.111141,-0.653612,-8.823768
40.98,0.980419,-0.947738,-8.693045
41,1.339905,0.130722,-10.882647
41.02,1.503309,-0.261445,-10.327076
41.04,1.241864,-0.686293,-9.085213
41.06,1.405267,-0.457529,-9.51006
41.08,1.666712,0.130722,-10.915327
41.1,1.503309,-0.490209,-10.163673
41.12,1.307225,-0.294126,-7.974071
41.14,1.666712,-0.228764,-9.412019
41.16,1.339905,0.392167,-11.961107
41.18,1.535989,-0.261445,-8.95449
41.2,1.437947,-0.261445,-7.777988
41.22,1.56867,-0.326806,-10.490479
41.24,1.830115,-0.392167,-11.242133
41.26,1.732073,-0.52289,-8.562323
41.28,1.60135,-0.261445,-8.104794
41.3,1.04578,0.163403,-10.719243
41.32,1.241864,-0.326806,-11.209453
41.34,1.209183,-0.359487,-9.085213
41.36,1.176502,-0.817015,-8.725725
41.38,1.339905,0.032681,-10.751924
41.4,1.405267,0.032681,-10.751924
41.42,1.274544,-0.261445,-8.791086
41.44,1.111141,-0.490209,-8.791086
41.46,1.274544,-0.098042,-11.144092
41.48,1.339905,-0.065361,-10.621202
41.5,1.143822,-0.718974,-8.889129
41.52,1.274544,-0.620932,-8.595003
41.54,1.372586,0,-10.882647
41.56,1.307225,-0.130722,-11.176772
41.58,1.143822,-0.52289,-8.725725
41.6,1.209183,-0.424848,-8.496961
41.62,1.339905,0.196084,-11.07873
41.64,1.339905,-0.326806,-10.915327
41.66,1.209183,-0.849696,-8.333558
41.68,1.274544,-0.784335,-8.693045
41.7,1.372586,-0.163403,-10.55584
41.72,1.307225,-0.196084,-11.242133
41.74,1.176502,-0.588251,-8.95449
41.76,1.176502,-0.751654,-8.235516
41.78,1.307225,-0.653612,-10.588521
41.8,1.339905,-0.261445,-11.438217
41.82,1.274544,-1.143822,-9.313977
41.84,1.07846,-1.111141,-8.693045
41.86,1.339905,-0.52289,-9.542741
41.88,1.307225,-0.261445,-11.568939
41.9,1.307225,-0.457529,-9.804186
41.92,1.176502,-0.718974,-8.170155
41.94,1.241864,-0.849696,-9.019851
41.96,1.372586,-0.359487,-11.013369
41.98,1.405267,-0.294126,-10.882646
42,1.013099,-0.915057,-8.791087
42.02,1.013099,-0.817015,-8.464281
42.04,1.209183,-0.326806,-10.098311
42.06,1.274544,-0.065361,-11.634301
42.08,1.274544,-0.653612,-9.51006
42.1,1.176502,-0.980419,-8.398919
42.12,1.143822,-0.849696,-9.281296
42.14,1.339905,-0.196084,-11.340176
42.16,1.339905,-0.261445,-10.653882
42.18,1.274544,-0.653612,-8.4316
42.2,1.339905,-0.817015,-8.693045
42.22,1.274544,-0.653612,-10.294395
42.24,1.274544,-0.228764,-11.895745
42.26,1.176502,-0.751654,-9.804186
42.28,1.209183,-0.817015,-7.90871
42.3,1.241864,-0.915057,-8.627684
42.32,1.470628,-0.52289,-10.948008
42.34,1.274544,-0.294126,-11.405537
42.36,1.176502,-0.490209,-9.052532
42.38,1.111141,-0.947738,-8.333558
42.4,1.274544,-0.947738,-9.444699
42.42,1.437947,-0.457529,-11.04605
42.44,1.274544,-0.457529,-11.013369
42.46,1.209183,-0.653612,-8.464281
42.48,1.143822,-0.882377,-8.595003
42.5,1.372586,-0.915057,-10.327076
42.52,1.437947,-0.588251,-10.882646
42.54,1.274544,-0.52289,-10.653882
42.56,1.241864,-0.588251,-8.693045
42.58,1.241864,-0.947738,-8.627684
42.6,1.339905,-0.849696,-9.967589
42.62,1.372586,-0.52289,-10.915327
42.64,1.372586,-0.261445,-10.359756
42.66,1.274544,-0.686293,-9.052532
42.68,1.241864,-0.849696,-8.823767
42.7,1.307225,-1.013099,-9.934908
42.72,1.339905,-0.849696,-10.784604
42.74,1.274544,-0.457529,-10.653882
42.76,1.04578,-0.686293,-9.248616
42.78,1.111141,-1.07846,-8.595003
42.8,1.209183,-0.980419,-9.542741
42.82,1.274544,-0.980419,-10.425118
42.84,1.241864,-0.555571,-10.55584
42.86,1.143822,-0.457529,-9.640783
42.88,1.274544,-1.07846,-9.281296
42.9,1.307225,-1.111141,-9.248616
42.92,1.274544,-1.07846,-10.032951
42.94,1.274544,-1.013099,-10.490479
42.96,1.307225,-0.457529,-10.359757
42.98,1.176502,-0.849696,-8.987171
43,1.241864,-1.176502,-9.248616
43.02,1.241864,-0.980419,-9.575422
43.04,1.241864,-1.143822,-10.327076
43.06,1.274544,-0.751654,-10.163673
43.08,1.274544,-0.555571,-9.869547
43.1,1.307225,-1.013099,-9.346657
43.12,1.307225,-1.143822,-8.95449
43.14,1.307225,-1.143822,-10.229034
43.16,1.339905,-1.274544,-10.130992
43.18,1.241864,-0.849696,-10.000269
43.2,1.176502,-0.653612,-9.836867
43.22,1.176502,-1.111141,-9.771506
43.24,1.307225,-1.241864,-9.215935
43.26,1.307225,-1.241864,-10.098312
43.28,1.307225,-1.405267,-9.804186
43.3,1.241864,-0.718974,-9.608102
43.32,1.274544,-0.620932,-10.359757
43.34,1.143822,-1.209183,-9.575422
43.36,1.241864,-1.470628,-9.412018
43.38,1.241864,-1.56867,-9.542741
43.4,1.274544,-1.241864,-10.261714
43.42,1.307225,-1.013099,-9.444699
43.44,1.307225,-1.04578,-9.804186
43.46,1.307225,-1.07846,-10.392437
43.48,1.274544,-1.470628,-9.379338
43.5,1.339905,-1.535989,-9.47738
43.52,1.405267,-1.176502,-9.575422
43.54,1.274544,-0.947738,-9.346657
43.56,1.470628,-1.176502,-9.738824
43.58,1.372586,-0.784335,-10.065631
43.6,1.307225,-1.209183,-10.392437
43.62,1.274544,-1.56867,-9.444699
43.64,1.339905,-1.372586,-9.379338
43.66,1.503308,-1.56867,-10.130992
43.68,1.372586,-0.424848,-7.974071
43.7,1.339905,-1.830115,-10.03295
43.72,1.634031,-1.405267,-10.686563
43.74,1.634031,-1.699392,-10.457799
43.76,1.503308,-2.353005,-10.55584
43.78,1.372586,-1.013099,-9.248616
43.8,1.405267,-0.882377,-9.313977
43.82,1.535989,-1.830115,-8.170155
43.84,1.60135,-0.718974,-10.817285
43.86,2.058879,-1.176502,-10.784605
43.88,1.764754,-1.143822,-9.902228
43.9,1.503308,-1.111141,-10.229034
43.92,1.535989,-0.751654,-8.725726
43.94,1.764754,-1.111141,-9.117893
43.96,1.732073,-1.241864,-10.130993
43.98,1.634031,-1.405267,-9.117893
44,1.960837,-1.895476,-9.869548
44.02,1.895476,-1.634031,-10.196354
44.04,1.699392,-0.947738,-9.771505
44.06,1.830115,-1.470628,-9.575422
44.08,1.764754,-1.56867,-9.052532
44.1,2.058879,-1.04578,-9.902228
44.12,1.993518,-1.437947,-9.967589
44.14,2.026198,-1.535989,-9.346657
44.16,1.960837,-1.928157,-9.869548
44.18,1.895476,-1.372586,-9.902228
44.2,1.928157,-1.699392,-8.725726
44.22,1.960837,-1.895476,-9.673464
44.24,2.64713,-1.797434,-10.294395
44.26,2.287643,-1.176502,-9.902228
44.28,2.156921,-1.07846,-9.346657
44.3,2.156921,-2.026198,-9.085212
44.32,2.254963,-2.64713,-9.51006
44.34,2.353005,-1.960837,-9.902228
44.36,2.549088,-1.699392,-9.967589
44.38,2.254963,-1.830115,-9.706144
44.4,2.189602,-1.503309,-8.725726
44.42,2.581769,-1.307225,-9.313977
44.44,2.483727,-1.04578,-9.052532
44.46,2.745172,-2.12424,-9.183254
44.48,3.235381,-2.451047,-10.948007
44.5,3.006617,-2.254963,-10.065631
44.52,3.071978,-1.470628,-8.464281
44.54,2.745172,-1.307225,-8.725726
44.56,2.222282,-1.437947,-10.327076
44.58,2.549088,-2.320324,-10.327076
44.6,2.418366,-2.026198,-10.915327
44.62,2.418366,-1.993518,-9.575422
44.64,2.451046,-2.287643,-8.856448
44.66,2.026198,-2.156921,-9.248616
44.68,2.156921,-2.320324,-9.804186
44.7,2.12424,-1.993518,-10.196354
44.72,2.09156,-1.634031,-10.980688
44.74,1.928157,-1.56867,-9.248615
44.76,1.928157,-2.058879,-8.921809
44.78,1.960837,-2.549088,-9.706144
44.8,1.797434,-2.712492,-10.392437
44.82,1.764754,-2.581769,-10.196354
44.84,1.797434,-2.026199,-9.542741
44.86,1.764754,-2.418366,-9.313976
44.88,1.764754,-2.451046,-9.150574
44.9,1.797434,-2.61445,-10.00027
44.92,1.797434,-2.353005,-10.00027
44.94,1.830115,-1.928157,-9.673464
44.96,1.732073,-2.189602,-10.229034
44.98,1.666712,-2.385685,-9.934909
45,1.60135,-2.353005,-9.379338
45.02,1.503308,-2.189602,-8.98717
45.04,1.764754,-2.026199,-9.117893
45.06,1.60135,-2.156921,-9.738825
45.08,1.60135,-1.764753,-10.653882
45.1,1.56867,-2.222282,-9.412019
45.12,1.56867,-2.12424,-8.791087
45.14,1.60135,-2.483727,-8.95449
45.16,1.56867,-2.61445,-9.836866
45.18,1.503308,-2.385685,-10.130992
45.2,1.535989,-2.353005,-10.719243
45.22,1.470628,-1.764753,-9.346658
45.24,1.634031,-1.830115,-8.823768
45.26,1.437947,-2.287643,-9.117893
45.28,1.405267,-2.745172,-9.934909
45.3,1.405267,-2.549088,-10.588521
45.32,1.372586,-2.189602,-10.327076
45.34,1.372586,-1.60135,-9.150574
45.36,1.307225,-1.993518,-9.444699
45.38,1.307225,-1.895476,-9.575421
45.4,1.405267,-1.993518,-10.03295
45.42,0.980419,-2.026199,-10.03295
45.44,1.111141,-1.895476,-10.098311
45.46,1.07846,-1.928157,-9.706144
45.48,1.209183,-2.12424,-9.215935
45.5,1.013099,-2.385685,-9.836866
45.52,1.04578,-2.09156,-10.196354
45.54,1.07846,-1.56867,-9.215935
45.56,1.07846,-1.862795,-9.608103
45.58,1.241864,-2.222282,-10.163672
45.6,1.111141,-2.254963,-9.934909
45.62,1.241864,-1.960837,-9.542741
45.64,1.111141,-2.026199,-9.738825
45.66,0.947738,-1.764753,-9.608103
45.68,1.04578,-2.026199,-9.640783
45.7,1.04578,-1.928157,-9.869547
45.72,1.241864,-2.451047,-10.229034
45.74,0.784335,-2.189601,-9.738825
45.76,0.784335,-1.307225,-9.706145
45.78,1.111141,-1.470628,-9.575422
45.8,1.241864,-1.732073,-9.019851
45.82,1.241864,-2.712492,-10.098312
45.84,1.04578,-1.862795,-10.196353
45.86,1.176502,-1.797434,-10.490479
45.88,1.07846,-1.862795,-9.771506
45.9,1.111141,-1.634031,-9.248615
45.92,1.339905,-1.666712,-9.836867
45.94,1.339905,-1.862795,-9.673463
45.96,1.339905,-1.503308,-9.706145
45.98,1.274544,-2.058879,-9.934908
46,1.176502,-1.634031,-10.686563
46.02,1.07846,-1.535989,-10.130992
46.04,1.143822,-1.535989,-9.085212
46.06,1.176502,-1.437947,-9.510061
46.08,1.143822,-1.60135,-9.869547
46.1,1.07846,-1.699392,-9.771506
46.12,1.143822,-1.928157,-10.163673
46.14,1.04578,-2.026198,-9.738825
46.16,0.947738,-1.372586,-9.771506
46.18,1.07846,-1.437947,-9.96759
46.2,1.04578,-1.339905,-10.00027
46.22,0.980419,-0.849696,-9.313976
46.24,0.915057,-0.490209,-11.11141
46.26,1.339905,-1.634031,-8.235516
46.28,0.915057,-2.385685,-9.281296
46.3,1.176502,-2.451047,-10.098312
46.32,0.718974,-1.764754,-10.196353
46.34,1.07846,-1.04578,-11.863065
46.36,0.947738,-0.849696,-8.46428
46.38,1.176502,-0.555571,-8.006752
46.4,1.437947,-1.405267,-10.490479
46.42,1.470628,-1.437947,-11.11141
46.44,1.699392,-0.915057,-9.379338
46.46,1.274544,-1.176502,-9.150574
46.48,1.470628,-1.60135,-9.738825
46.5,1.437947,-1.60135,-9.673463
46.52,1.470628,-0.751654,-10.457798
46.54,1.372586,-0.52289,-10.00027
46.56,1.437947,-1.013099,-9.248615
46.58,1.470628,-1.307225,-9.869547
46.6,1.503309,-1.339905,-9.738825
46.62,1.503309,-1.241864,-9.281296
46.64,1.535989,-1.143822,-9.313976
46.66,1.634031,-1.111141,-9.640783
46.68,1.666712,-1.176502,-9.804186
46.7,1.503308,-0.620932,-10.327076
46.72,1.241864,0.424848,-10.817286
46.74,1.274544,-0.52289,-9.836866
46.76,1.241864,-1.732073,-8.95449
46.78,1.07846,-1.60135,-12.091829
46.8,1.274544,-0.784335,-9.51006
46.82,1.307225,-0.588251,-5.359621
46.84,1.405267,-2.908575,-8.856448
46.86,1.56867,-2.353005,-12.941525
46.88,1.405267,0.359487,-10.065631
46.9,1.07846,-0.065361,-8.235517
46.92,1.241864,-0.261445,-10.948008
46.94,1.372586,-0.915057,-10.948008
46.96,1.339905,-1.143822,-9.117893
46.98,1.274544,-0.915057,-9.248615
47,1.307225,-0.980419,-9.934909
47.02,1.56867,-1.013099,-9.313976
47.04,1.535989,-0.849696,-9.183254
47.06,1.470628,-1.241864,-10.294395
47.08,1.60135,-1.07846,-9.640783
47.1,1.470628,-0.555571,-9.51006
47.12,1.535989,-0.653612,-10.359756
47.14,1.503308,-0.817015,-10.00027
47.16,1.535989,-0.980419,-10.03295
47.18,1.503308,-1.339905,-9.412019
47.2,1.470628,-0.849696,-9.248615
47.22,1.699392,-0.751654,-10.03295
47.24,1.634031,-1.111141,-9.542741
47.26,1.699392,-0.980419,-9.673464
47.28,1.732073,-0.849696,-9.608102
47.3,1.666712,-0.980419,-9.738825
47.32,1.764754,-1.274544,-9.902228
47.34,1.732073,-1.013099,-9.804186
47.36,1.699392,-0.817015,-9.673464
47.38,1.764754,-0.490209,-10.196354
47.4,1.60135,-0.555571,-9.608102
47.42,1.60135,-1.013099,-9.542741
47.44,1.634031,-0.882377,-9.706144
47.46,1.634031,-1.241864,-9.542741
47.48,1.732073,-0.882377,-9.738825
47.5,1.732073,-0.555571,-9.444699
47.52,1.666712,-0.980419,-9.706144
47.54,1.56867,-0.980419,-10.130992
47.56,1.535989,-0.784335,-10.130992
47.58,1.60135,-0.620932,-9.47738
47.6,1.503308,-0.326806,-9.412019
47.62,1.503308,-0.52289,-9.934909
47.64,1.699392,-1.04578,-10.130992
47.66,1.56867,-0.686293,-9.313976
47.68,1.405267,-1.07846,-9.608102
47.7,1.470628,-0.947738,-9.510061
47.72,1.535989,-0.392167,-9.738825
47.74,1.437947,-1.04578,-10.359757
47.76,1.437947,-1.274544,-9.4447
47.78,1.339905,-1.013099,-9.47738
47.8,1.372586,-0.457529,-10.196353
47.82,1.307225,-0.52289,-9.902228
47.84,1.274544,-0.294126,-10.163673
47.86,1.307225,-0.620932,-9.281296
47.88,1.339905,-0.784335,-9.640783
47.9,1.209183,-0.52289,-10.163673
47.92,1.307225,-0.915057,-9.412018
47.94,1.274544,-0.653612,-9.248616
47.96,1.405267,-0.686293,-9.934908
47.98,1.372586,-1.04578,-10.425118
48,1.274544,-0.653612,-9.313977
48.02,1.209183,-0.718974,-9.379338
48.04,1.339905,-0.555571,-10.490479
48.06,1.241864,-0.718974,-10.261714
48.08,1.013099,-0.196084,-9.4447
48.1,1.307225,-0.294126,-9.869547
48.12,1.209183,-0.784335,-9.836867
48.14,1.143822,-0.653612,-9.836867
48.16,1.111141,-0.52289,-9.804186
48.18,1.209183,-0.653612,-9.771506
48.2,1.176502,-1.07846,-9.281296
48.22,1.405267,-0.326806,-9.640783
48.24,1.143822,-0.588251,-9.902228
48.26,0.817015,-1.111141,-10.490479
48.28,0.849696,-0.555571,-9.313977
48.3,1.437947,-0.588251,-9.215935
48.32,1.307225,-1.04578,-10.229034
48.34,1.634031,-0.915057,-10.163673
48.36,1.176502,-0.490209,-9.379338
48.38,1.143822,-0.52289,-10.392437
48.4,1.143822,-0.52289,-9.869547
48.42,1.111141,-0.882377,-8.758406
48.44,1.176502,-0.784335,-10.032951
48.46,1.209183,-0.359487,-10.490479
48.48,1.07846,-0.294126,-9.215935
48.5,1.143822,-1.143822,-9.379338
48.52,1.176502,-1.07846,-10.196353
48.54,1.274544,-0.849696,-9.869547
48.56,1.176502,-0.130722,-9.248616
48.58,1.274544,-0.294126,-9.934908
48.6,1.241864,-1.241864,-10.588521
48.62,1.176502,-1.176502,-9.412018
48.64,1.07846,-0.098042,-9.248616
48.66,1.176502,0.228764,-10.00027
48.68,1.437947,-0.784335,-10.065631
48.7,1.209183,-0.817015,-9.575421
48.72,0.980419,-0.294126,-9.51006
48.74,1.241864,-0.294126,-10.065631
48.76,1.209183,-0.326806,-9.738825
48.78,1.176502,-1.013099,-9.51006
48.8,1.143822,-0.817015,-10.163672
48.82,1.176502,-0.065361,-10.098311
48.84,1.111141,-0.294126,-9.412019
48.86,1.176502,-0.980419,-9.673464
48.88,1.209183,-1.07846,-9.934909
48.9,1.176502,-0.490209,-10.03295
48.92,1.04578,-0.326806,-9.771505
48.94,1.04578,-0.817015,-9.575421
48.96,1.209183,-0.784335,-9.804186
48.98,1.143822,-0.52289,-9.804186
49,1.07846,-0.52289,-9.836866
49.02,0.980419,-0.686293,-10.163672
49.04,1.04578,-0.784335,-9.575421
49.06,1.111141,-0.784335,-9.444699
49.08,1.143822,-0.653612,-10.130992
49.1,1.209183,-0.588251,-9.771505
49.12,1.241864,-0.686293,-9.608103
49.14,1.307225,-0.620932,-9.771505
49.16,1.307225,-0.653612,-9.836866
49.18,1.307225,-0.52289,-9.771505
49.2,1.307225,-0.392167,-9.738825
49.22,1.274544,-0.490209,-9.869547
49.24,1.209183,-0.718974,-9.836866
49.26,1.209183,-0.784335,-9.706144
49.28,1.307225,-0.686293,-9.640783
49.3,1.339905,-0.52289,-9.804186
49.32,1.372586,-0.653612,-9.804186
49.34,1.372586,-0.751654,-9.706144
49.36,1.307225,-0.718974,-9.771505
49.38,1.274544,-0.588251,-9.804186
49.4,1.241864,-0.588251,-9.771505
49.42,1.209183,-0.686293,-9.771505
49.44,1.176502,-0.588251,-9.804186
49.46,1.143822,-0.588251,-9.771505
49.48,1.209183,-0.653612,-9.804186
49.5,1.274544,-0.653612,-9.738825
49.52,1.60135,-0.588251,-9.738825
49.54,1.830115,-0.686293,-9.706144
49.56,1.830115,-0.686293,-9.706144
49.58,1.797434,-0.52289,-9.706144
49.6,1.732073,-0.588251,-9.738825
49.62,1.699392,-0.686293,-9.771505
49.64,1.60135,-0.653612,-9.706144
49.66,1.699392,-0.588251,-9.673464
49.68,1.764753,-0.686293,-9.673463
49.7,1.699392,-0.620932,-9.706145
49.72,1.634031,-0.555571,-9.738825
49.74,1.634031,-0.653612,-9.738825
49.76,1.732073,-0.718974,-9.706145
49.78,1.764753,-0.620932,-9.771506
49.8,1.666712,-0.555571,-9.706145
49.82,1.666712,-0.653612,-9.706145
49.84,1.699392,-0.686293,-9.738825
49.86,1.732073,-0.588251,-9.738825
49.88,1.699392,-0.555571,-9.706145
49.9,1.666712,-0.686293,-9.706145
49.92,1.732073,-0.653612,-9.738825
49.94,1.732073,-0.490209,-9.771506
49.96,1.699392,-0.490209,-9.673463
49.98,1.699392,-0.653612,-9.738825
50,1.699392,-0.653612,-9.771506
50.02,1.699392,-0.588251,-9.738825
50.04,1.699392,-0.653612,-9.706145
50.06,1.699392,-0.653612,-9.738825
50.08,1.699392,-0.620932,-9.706145
50.1,1.732073,-0.588251,-9.738825
50.12,1.699392,-0.620932,-9.738825
50.14,1.699392,-0.620932,-9.673463
50.16,1.732073,-0.588251,-9.706145
50.18,1.732073,-0.620932,-9.706145
50.2,1.699392,-0.620932,-9.738825
50.22,1.699392,-0.620932,-9.738825
50.24,1.666712,-0.620932,-9.738825
50.26,1.699392,-0.620932,-9.673463
50.28,1.666712,-0.588251,-9.738825
50.3,1.666712,-0.555571,-9.738825
50.32,1.666712,-0.620932,-9.738825
50.34,1.732073,-0.620932,-9.706145
50.36,1.732073,-0.653612,-9.706145
50.38,1.666712,-0.588251,-9.706145
50.4,1.666712,-0.588251,-9.771506
50.42,1.666712,-0.588251,-9.706145
50.44,1.699392,-0.588251,-9.673463
50.46,1.732073,-0.620932,-9.738825
50.48,1.732073,-0.620932,-9.706145
50.5,1.699392,-0.620932,-9.706145
50.52,1.699392,-0.653612,-9.706145
50.54,1.699392,-0.620932,-9.706145
50.56,1.699392,-0.588251,-9.738825
50.58,1.699392,-0.555571,-9.706145
50.6,1.666712,-0.555571,-9.673463
50.62,1.699392,-0.653612,-9.706145
50.64,1.699392,-0.653612,-9.640783
50.66,1.699392,-0.620932,-9.738825
50.68,1.699392,-0.620932,-9.771506
50.7,1.666712,-0.620932,-9.673463
50.72,1.666712,-0.588251,-9.640783
50.74,1.699392,-0.620932,-9.738825
50.76,1.699392,-0.620932,-9.706144
50.78,1.699392,-0.588251,-9.738825
50.8,1.699392,-0.620932,-9.706144
50.82,1.699392,-0.620932,-9.706144
50.84,1.666712,-0.620932,-9.738825
50.86,1.699392,-0.588251,-9.738825
50.88,1.732073,-0.620932,-9.706144
50.9,1.699392,-0.620932,-9.706144
50.92,1.699392,-0.653612,-9.706144
50.94,1.699392,-0.620932,-9.738825
50.96,1.699392,-0.620932,-9.738825
50.98,1.699392,-0.653612,-9.738825
51,1.699392,-0.620932,-9.738825
51.02,1.699392,-0.588251,-9.706144
51.04,1.699392,-0.620932,-9.738825
51.06,1.666712,-0.620932,-9.738825
51.08,1.699392,-0.620932,-9.706144
51.1,1.699392,-0.620932,-9.706144
51.12,1.732073,-0.653612,-9.706144
51.14,1.699392,-0.620932,-9.738825
51.16,1.732073,-0.620932,-9.771506
51.18,1.699392,-0.620932,-9.706144
51.2,1.666712,-0.620932,-9.738825
51.22,1.666712,-0.653612,-9.738825
51.24,1.666712,-0.620932,-9.673463
51.26,1.699392,-0.620932,-9.706144
51.28,1.699392,-0.653612,-9.706144
51.3,1.699392,-0.620932,-9.706144
51.32,1.699392,-0.588251,-9.738825
51.34,1.699392,-0.620932,-9.673463
51.36,1.699392,-0.620932,-9.673463
51.38,1.699392,-0.620932,-9.706144
51.4,1.699392,-0.620932,-9.640783
51.42,1.666712,-0.620932,-9.706144
51.44,1.666712,-0.620932,-9.673463
51.46,1.699392,-0.620932,-9.673463
51.48,1.699392,-0.588251,-9.706144
51.5,1.699392,-0.620932,-9.673463
51.52,1.699392,-0.620932,-9.673463
51.54,1.699392,-0.653612,-9.673463
51.56,1.732073,-0.620932,-9.738825
51.58,1.699392,-0.620932,-9.640783
51.6,1.666712,-0.620932,-9.706144
51.62,1.699392,-0.620932,-9.706144
51.64,1.699392,-0.620932,-9.673463
51.66,1.666712,-0.686293,-9.673463
51.68,1.666712,-0.653612,-9.673463
51.7,1.666712,-0.588251,-9.673463
51.72,1.666712,-0.620932,-9.706145
51.74,1.732073,-0.620932,-9.673463
51.76,1.699392,-0.653612,-9.738825
51.78,1.666712,-0.620932,-9.706145
51.8,1.666712,-0.620932,-9.706145
51.82,1.699392,-0.620932,-9.706145
51.84,1.732073,-0.653612,-9.738825
51.86,1.699392,-0.653612,-9.706145
51.88,1.699392,-0.620932,-9.706145
51.9,1.699392,-0.620932,-9.738825
51.92,1.666712,-0.620932,-9.706145
51.94,1.699392,-0.653612,-9.738825
51.96,1.732073,-0.653612,-9.738825
51.98,1.666712,-0.620932,-9.673463
52,1.666712,-0.588251,-9.706145
52.02,1.732073,-0.588251,-9.804186
52.04,1.699392,-0.620932,-9.706145
52.06,1.732073,-0.620932,-9.706145
52.08,1.732073,-0.620932,-9.738825
52.1,1.666712,-0.653612,-9.673463
52.12,1.699392,-0.620932,-9.706145
52.14,1.699392,-0.620932,-9.738825
52.16,1.699392,-0.588251,-9.706145
52.18,1.699392,-0.588251,-9.706145
52.2,1.699392,-0.653612,-9.738825
52.22,1.666712,-0.686293,-9.706145
52.24,1.699392,-0.653612,-9.738825
52.26,1.699392,-0.620932,-9.738825
52.28,1.666712,-0.588251,-9.640783
52.3,1.699392,-0.588251,-9.771506
52.32,1.699392,-0.653612,-9.673463
52.34,1.666712,-0.620932,-9.640783
52.36,1.732073,-0.588251,-9.771506
52.38,1.666712,-0.620932,-9.640783
52.4,1.699392,-0.653612,-9.640783
52.42,1.732073,-0.620932,-9.771506
52.44,1.699392,-0.620932,-9.640783
52.46,1.666712,-0.620932,-9.706145
52.48,1.732073,-0.620932,-9.738825
52.5,1.699392,-0.620932,-9.673463
52.52,1.666712,-0.686293,-9.673463
52.54,1.699392,-0.653612,-9.706145
52.56,1.666712,-0.620932,-9.673463
52.58,1.732073,-0.620932,-9.738825
52.6,1.699392,-0.653612,-9.706145
52.62,1.666712,-0.620932,-9.706145
52.64,1.699392,-0.588251,-9.640783
52.66,1.699392,-0.653612,-9.673463
52.68,1.732073,-0.653612,-9.706144
52.7,1.666712,-0.620932,-9.640783
52.72,1.699392,-0.620932,-9.706144
52.74,1.699392,-0.588251,-9.706144
52.76,1.699392,-0.653612,-9.706144
52.78,1.732073,-0.686293,-9.738824
52.8,1.699392,-0.653612,-9.706144
52.82,1.666712,-0.620932,-9.673463
52.84,1.732073,-0.620932,-9.738824
52.86,1.699392,-0.653612,-9.706144
52.88,1.666712,-0.653612,-9.706144
52.9,1.699392,-0.653612,-9.738824
52.92,1.699392,-0.653612,-9.706144
52.94,1.699392,-0.653612,-9.738824
52.96,1.699392,-0.653612,-9.738824
52.98,1.666712,-0.686293,-9.706144
53,1.699392,-0.653612,-9.738824
53.02,1.699392,-0.653612,-9.706144
53.04,1.699392,-0.653612,-9.706144
53.06,1.732073,-0.620932,-9.738824
53.08,1.666712,-0.620932,-9.738824
53.1,1.699392,-0.620932,-9.706144
53.12,1.732073,-0.620932,-9.706144
53.14,1.732073,-0.653612,-9.706144
53.16,1.699392,-0.620932,-9.706144
53.18,1.732073,-0.588251,-9.706144
53.2,1.699392,-0.620932,-9.706144
53.22,1.699392,-0.686293,-9.706144
53.24,1.732073,-0.718974,-9.738824
53.26,1.699392,-0.653612,-9.673463
53.28,1.732073,-0.620932,-9.738824
53.3,1.699392,-0.588251,-9.706144
53.32,1.666712,-0.588251,-9.673463
53.34,1.699392,-0.620932,-9.738824
53.36,1.666712,-0.620932,-9.673463
53.38,1.666712,-0.653612,-9.706144
53.4,1.666712,-0.653612,-9.738824
53.42,1.666712,-0.620932,-9.673463
53.44,1.699392,-0.620932,-9.706144
53.46,1.666712,-0.620932,-9.706144
53.48,1.666712,-0.588251,-9.706144
53.5,1.699392,-0.620932,-9.706144
53.52,1.699392,-0.620932,-9.706144
53.54,1.699392,-0.620932,-9.706144
53.56,1.666712,-0.588251,-9.706144
53.58,1.666712,-0.588251,-9.608102
53.6,1.699392,-0.588251,-9.673463
53.62,1.732073,-0.620932,-9.673463
53.64,1.666712,-0.620932,-9.673463
53.66,1.699392,-0.620932,-9.706144
53.68,1.732073,-0.653612,-9.640783
53.7,1.732073,-0.653612,-9.673464
53.72,1.699392,-0.620932,-9.706144
53.74,1.634031,-0.653612,-9.673464
53.76,1.699392,-0.588251,-9.673464
53.78,1.732073,-0.620932,-9.706144
53.8,1.699392,-0.620932,-9.706144
53.82,1.666712,-0.653612,-9.673464
53.84,1.699392,-0.620932,-9.706144
53.86,1.699392,-0.588251,-9.706144
53.88,1.732073,-0.620932,-9.706144
53.9,1.699392,-0.620932,-9.738825
53.92,1.666712,-0.653612,-9.706144
53.94,1.699392,-0.653612,-9.706144
53.96,1.699392,-0.620932,-9.771505
53.98,1.732073,-0.653612,-9.738825
54,1.699392,-0.653612,-9.673464
54.02,1.699392,-0.653612,-9.706144
54.04,1.699392,-0.620932,-9.673464
54.06,1.699392,-0.620932,-9.738825
54.08,1.699392,-0.620932,-9.738825
54.1,1.699392,-0.620932,-9.673464
54.12,1.732073,-0.653612,-9.738825
54.14,1.699392,-0.653612,-9.706144
54.16,1.699392,-0.620932,-9.706144
54.18,1.732073,-0.653612,-9.738825
54.2,1.666712,-0.588251,-9.673464
54.22,1.699392,-0.588251,-9.771505
54.24,1.699392,-0.620932,-9.738825
54.26,1.699392,-0.653612,-9.706144
54.28,1.699392,-0.620932,-9.738825
54.3,1.634031,-0.686293,-9.640783
54.32,1.699392,-0.620932,-9.706144
54.34,1.666712,-0.620932,-9.706144
54.36,1.666712,-0.588251,-9.640783
54.38,1.666712,-0.620932,-9.738825
54.4,1.699392,-0.620932,-9.640783
54.42,1.699392,-0.620932,-9.673464
54.44,1.732073,-0.653612,-9.738825
54.46,1.699392,-0.620932,-9.706144
54.48,1.699392,-0.588251,-9.706144
54.5,1.699392,-0.588251,-9.738825
54.52,1.699392,-0.588251,-9.706144
54.54,1.666712,-0.620932,-9.706144
54.56,1.666712,-0.588251,-9.673464
54.58,1.666712,-0.653612,-9.738825
54.6,1.699392,-0.620932,-9.640783
54.62,1.666712,-0.686293,-9.706144
54.64,1.699392,-0.620932,-9.738825
54.66,1.634031,-0.620932,-9.640783
54.68,1.666712,-0.620932,-9.706144
54.7,1.699392,-0.588251,-9.706144
54.72,1.666712,-0.653612,-9.673464
54.74,1.699392,-0.653612,-9.706144
54.76,1.699392,-0.620932,-9.673464
54.78,1.732073,-0.588251,-9.706144
54.8,1.699392,-0.653612,-9.738825
54.82,1.666712,-0.620932,-9.706144
54.84,1.666712,-0.620932,-9.706144
54.86,1.732073,-0.588251,-9.738825
54.88,1.699392,-0.555571,-9.706144
54.9,1.699392,-0.588251,-9.738825
54.92,1.666712,-0.620932,-9.738825
54.94,1.666712,-0.653612,-9.673464
54.96,1.699392,-0.620932,-9.738825
54.98,1.699392,-0.653612,-9.706144
55,1.699392,-0.620932,-9.738825
55.02,1.732073,-0.620932,-9.804186
55.04,1.666712,-0.588251,-9.706144
55.06,1.699392,-0.52289,-9.738825
55.08,1.699392,-0.588251,-9.706144
55.1,1.732073,-0.653612,-9.640783
55.12,1.732073,-0.686293,-9.738825
55.14,1.666712,-0.653612,-9.706144
55.16,1.666712,-0.620932,-9.706144
55.18,1.666712,-0.588251,-9.706144
55.2,1.699392,-0.620932,-9.706144
55.22,1.699392,-0.653612,-9.706144
55.24,1.699392,-0.653612,-9.738825
55.26,1.699392,-0.653612,-9.706144
55.28,1.699392,-0.653612,-9.706144
55.3,1.732073,-0.653612,-9.673464
55.32,1.699392,-0.620932,-9.673464
55.34,1.732073,-0.653612,-9.706144
55.36,1.699392,-0.588251,-9.706144
55.38,1.699392,-0.620932,-9.706144
55.4,1.699392,-0.653612,-9.706144
55.42,1.666712,-0.653612,-9.673464
55.44,1.699392,-0.620932,-9.673464
55.46,1.699392,-0.588251,-9.706144
55.48,1.699392,-0.588251,-9.706144
55.5,1.666712,-0.620932,-9.673464
55.52,1.666712,-0.620932,-9.673464
55.54,1.699392,-0.620932,-9.640783
55.56,1.666712,-0.620932,-9.706144
55.58,1.699392,-0.620932,-9.706144
55.6,1.699392,-0.653612,-9.706144
55.62,1.699392,-0.620932,-9.673464
55.64,1.699392,-0.620932,-9.706144
55.66,1.699392,-0.620932,-9.673464
55.68,1.699392,-0.588251,-9.738825
55.7,1.732073,-0.588251,-9.673463
55.72,1.699392,-0.653612,-9.673463
55.74,1.699392,-0.653612,-9.771506
55.76,1.732073,-0.620932,-9.738825
55.78,1.699392,-0.653612,-9.640783
55.8,1.732073,-0.653612,-9.738825
55.82,1.699392,-0.620932,-9.673463
55.84,1.699392,-0.620932,-9.706144
55.86,1.699392,-0.620932,-9.771506
55.88,1.699392,-0.620932,-9.706144
55.9,1.699392,-0.620932,-9.640783
55.92,1.732073,-0.653612,-9.771506
55.94,1.666712,-0.620932,-9.673463
55.96,1.666712,-0.620932,-9.738825
55.98,1.732073,-0.620932,-9.738825
56,1.699392,-0.653612,-9.673463
56.02,1.699392,-0.686293,-9.738825
56.04,1.699392,-0.653612,-9.706144
56.06,1.732073,-0.620932,-9.706144
56.08,1.732073,-0.555571,-9.738825
56.1,1.732073,-0.653612,-9.706144
56.12,1.699392,-0.620932,-9.706144
56.14,1.699392,-0.620932,-9.738825
56.16,1.699392,-0.588251,-9.738825
56.18,1.699392,-0.588251,-9.706144
56.2,1.699392,-0.653612,-9.706144
56.22,1.732073,-0.653612,-9.706144
56.24,1.732073,-0.588251,-9.738825
56.26,1.699392,-0.588251,-9.738825
56.28,1.699392,-0.620932,-9.706144
56.3,1.699392,-0.653612,-9.738825
56.32,1.699392,-0.653612,-9.706144
56.34,1.699392,-0.620932,-9.673463
56.36,1.699392,-0.588251,-9.706144
56.38,1.666712,-0.620932,-9.673463
56.4,1.732073,-0.653612,-9.706144
56.42,1.699392,-0.620932,-9.706144
56.44,1.699392,-0.620932,-9.738825
56.46,1.666712,-0.653612,-9.673463
56.48,1.699392,-0.653612,-9.673463
56.5,1.699392,-0.653612,-9.706144
56.52,1.699392,-0.620932,-9.706144
56.54,1.666712,-0.686293,-9.706144
56.56,1.666712,-0.653612,-9.706144
56.58,1.699392,-0.653612,-9.706144
56.6,1.699392,-0.653612,-9.673463
56.62,1.666712,-0.620932,-9.706144
56.64,1.699392,-0.620932,-9.706144
56.66,1.732073,-0.620932,-9.706144
56.68,1.732073,-0.653612,-9.706144
56.7,1.666712,-0.653612,-9.673463
56.72,1.666712,-0.620932,-9.706144
56.74,1.699392,-0.653612,-9.706144
56.76,1.699392,-0.653612,-9.673463
56.78,1.699392,-0.620932,-9.673463
56.8,1.732073,-0.653612,-9.706144
56.82,1.699392,-0.653612,-9.706144
56.84,1.699392,-0.653612,-9.738824
56.86,1.732073,-0.588251,-9.738824
56.88,1.699392,-0.620932,-9.673463
56.9,1.699392,-0.653612,-9.706144
56.92,1.699392,-0.653612,-9.706144
56.94,1.699392,-0.588251,-9.706144
56.96,1.732073,-0.588251,-9.738824
56.98,1.666712,-0.620932,-9.706144
57,1.699392,-0.686293,-9.738824
57.02,1.699392,-0.686293,-9.706144
57.04,1.699392,-0.620932,-9.706144
57.06,1.699392,-0.620932,-9.804186
57.08,1.666712,-0.620932,-9.706144
57.1,1.732073,-0.653612,-9.738824
57.12,1.699392,-0.620932,-9.771506
57.14,1.666712,-0.588251,-9.673463
57.16,1.699392,-0.588251,-9.706144
57.18,1.699392,-0.620932,-9.706144
57.2,1.699392,-0.653612,-9.706144
57.22,1.732073,-0.653612,-9.738824
57.24,1.666712,-0.653612,-9.738824
57.26,1.699392,-0.620932,-9.706144
57.28,1.732073,-0.620932,-9.738824
57.3,1.699392,-0.620932,-9.673463
57.32,1.699392,-0.620932,-9.738824
57.34,1.699392,-0.620932,-9.738824
57.36,1.666712,-0.620932,-9.706144
57.38,1.666712,-0.653612,-9.738824
57.4,1.699392,-0.653612,-9.673463
57.42,1.699392,-0.653612,-9.706144
57.44,1.699392,-0.588251,-9.738824
57.46,1.666712,-0.588251,-9.706144
57.48,1.699392,-0.620932,-9.706144
57.5,1.699392,-0.653612,-9.738824
57.52,1.666712,-0.653612,-9.673463
57.54,1.666712,-0.653612,-9.738824
57.56,1.699392,-0.588251,-9.673463
57.58,1.699392,-0.588251,-9.706144
57.6,1.732073,-0.620932,-9.738824
57.62,1.699392,-0.555571,-9.673463
57.64,1.699392,-0.588251,-9.706144
57.66,1.699392,-0.555571,-9.706144
57.68,1.699392,-0.588251,-9.706144
57.7,1.732073,-0.620932,-9.673464
57.72,1.666712,-0.620932,-9.673464
57.74,1.699392,-0.620932,-9.673464
57.76,1.666712,-0.620932,-9.640783
57.78,1.699392,-0.686293,-9.706144
57.8,1.699392,-0.686293,-9.771505
57.82,1.634031,-0.588251,-9.640783
57.84,1.666712,-0.653612,-9.706144
57.86,1.634031,-0.653612,-9.738825
57.88,1.634031,-0.686293,-9.706144
57.9,1.634031,-0.751654,-9.738825
57.92,1.60135,-0.686293,-9.771505
57.94,1.56867,-0.653612,-9.673464
57.96,1.634031,-0.620932,-9.738825
57.98,1.666712,-0.588251,-9.706144
58,1.699392,-0.588251,-9.673464
58.02,1.895476,-0.555571,-9.738825
58.04,1.960837,-0.52289,-9.673464
58.06,2.026198,-0.555571,-9.640783
58.08,1.862795,-0.555571,-9.738825
58.1,1.764753,-0.588251,-9.738825
58.12,1.797434,-0.555571,-9.673464
58.14,1.830115,-0.555571,-9.706144
58.16,1.797434,-0.588251,-9.706144
58.18,1.732073,-0.653612,-9.706144
58.2,1.634031,-0.653612,-9.771505
58.22,1.60135,-0.555571,-9.706144
58.24,1.56867,-0.653612,-9.738825
58.26,1.56867,-0.686293,-9.771505
58.28,1.535989,-0.718974,-9.738825
58.3,1.535989,-0.686293,-9.706144
58.32,1.56867,-0.620932,-9.738825
58.34,1.699392,-0.588251,-9.673464
58.36,1.764753,-0.555571,-9.673464
58.38,1.699392,-0.620932,-9.673464
58.4,1.666712,-0.653612,-9.706144
58.42,1.699392,-0.653612,-9.706144
58.44,1.764753,-0.653612,-9.738825
58.46,1.830115,-0.653612,-9.673464
58.48,1.634031,-0.653612,-9.673464
58.5,1.535989,-0.620932,-9.771505
58.52,1.56867,-0.588251,-9.673464
58.54,1.634031,-0.653612,-9.706144
58.56,1.699392,-0.653612,-9.706144
58.58,1.797434,-0.555571,-9.673464
58.6,1.862795,-0.588251,-9.673464
58.62,1.895476,-0.588251,-9.608102
58.64,1.764753,-0.653612,-9.640783
58.66,1.666712,-0.686293,-9.706144
58.68,1.60135,-0.718974,-9.706144
58.7,1.56867,-0.653612,-9.673463
58.72,1.666712,-0.588251,-9.706144
58.74,1.732073,-0.555571,-9.673463
58.76,1.797434,-0.588251,-9.640783
58.78,1.732073,-0.653612,-9.706144
58.8,1.666712,-0.686293,-9.640783
58.82,1.634031,-0.653612,-9.738824
58.84,1.666712,-0.588251,-9.738824
58.86,1.666712,-0.588251,-9.673463
58.88,1.764753,-0.555571,-9.706144
58.9,1.699392,-0.653612,-9.706144
58.92,1.666712,-0.653612,-9.706144
58.94,1.699392,-0.686293,-9.738824
58.96,1.732073,-0.588251,-9.706144
58.98,1.732073,-0.555571,-9.738824
59,1.666712,-0.653612,-9.706144
59.02,1.666712,-0.653612,-9.738824
59.04,1.699392,-0.620932,-9.706144
59.06,1.699392,-0.620932,-9.673463
59.08,1.699392,-0.620932,-9.738824
59.1,1.666712,-0.620932,-9.706144
59.12,1.666712,-0.588251,-9.706144
59.14,1.699392,-0.653612,-9.738824
59.16,1.699392,-0.653612,-9.738824
59.18,1.699392,-0.653612,-9.738824
59.2,1.699392,-0.588251,-9.706144
59.22,1.699392,-0.620932,-9.706144
59.24,1.732073,-0.620932,-9.706144
59.26,1.666712,-0.588251,-9.706144
59.28,1.666712,-0.653612,-9.706144
59.3,1.732073,-0.620932,-9.738824
59.32,1.699392,-0.620932,-9.673463
59.34,1.699392,-0.588251,-9.706144
59.36,1.666712,-0.653612,-9.738824
59.38,1.699392,-0.653612,-9.706144
59.4,1.699392,-0.653612,-9.706144
59.42,1.666712,-0.620932,-9.673463
59.44,1.699392,-0.620932,-9.706144
59.46,1.666712,-0.653612,-9.706144
59.48,1.634031,-0.620932,-9.706144
59.5,1.699392,-0.620932,-9.706144
59.52,1.666712,-0.588251,-9.673463
59.54,1.699392,-0.588251,-9.706144
59.56,1.732073,-0.620932,-9.706144
59.58,1.699392,-0.620932,-9.706144
59.6,1.699392,-0.620932,-9.738824
59.62,1.699392,-0.686293,-9.706144
59.64,1.666712,-0.653612,-9.706144
59.66,1.699392,-0.620932,-9.706144
59.68,1.699392,-0.653612,-9.673464
59.7,1.699392,-0.620932,-9.673464
59.72,1.666712,-0.620932,-9.706144
59.74,1.666712,-0.653612,-9.673464
59.76,1.699392,-0.620932,-9.706144
59.78,1.732073,-0.620932,-9.738825
59.8,1.699392,-0.653612,-9.673464
59.82,1.699392,-0.620932,-9.673464
59.84,1.699392,-0.653612,-9.738825
59.86,1.732073,-0.620932,-9.706144
59.88,1.699392,-0.620932,-9.706144
59.9,1.732073,-0.620932,-9.738825
59.92,1.699392,-0.653612,-9.706144
59.94,1.699392,-0.620932,-9.706144
59.96,1.666712,-0.588251,-9.706144
59.98,1.699392,-0.620932,-9.706144
60,1.764754,-0.686293,-9.738825
60.02,1.666712,-0.653612,-9.706144
60.04,1.666712,-0.620932,-9.706144
60.06,1.699392,-0.588251,-9.706144
60.08,1.699392,-0.620932,-9.706144
60.1,1.699392,-0.653612,-9.738825
60.12,1.699392,-0.653612,-9.706144
60.14,1.732073,-0.620932,-9.738825
60.16,1.699392,-0.588251,-9.706144
60.18,1.699392,-0.653612,-9.738825
60.2,1.732073,-0.653612,-9.673464
60.22,1.666712,-0.653612,-9.706144
60.24,1.699392,-0.588251,-9.738825
60.26,1.666712,-0.620932,-9.706144
60.28,1.699392,-0.620932,-9.706144
60.3,1.732073,-0.686293,-9.738825
60.32,1.699392,-0.620932,-9.673464
60.34,1.699392,-0.620932,-9.673464
60.36,1.634031,-0.620932,-9.738825
60.38,1.666712,-0.555571,-9.640783
60.4,1.699392,-0.620932,-9.706144
60.42,1.666712,-0.620932,-9.706144
60.44,1.634031,-0.588251,-9.640783
60.46,1.699392,-0.588251,-9.771506
60.48,1.666712,-0.620932,-9.706144
60.5,1.666712,-0.653612,-9.673464
60.52,1.699392,-0.620932,-9.738825
60.54,1.666712,-0.588251,-9.706144
60.56,1.699392,-0.620932,-9.673464
60.58,1.699392,-0.620932,-9.706144
60.6,1.732073,-0.620932,-9.706144
60.62,1.699392,-0.620932,-9.640783
60.64,1.666712,-0.620932,-9.673464
60.66,1.699392,-0.588251,-9.771506
60.68,1.666712,-0.620932,-9.640783
60.7,1.666712,-0.653612,-9.673463
60.72,1.699392,-0.620932,-9.738825
60.74,1.699392,-0.620932,-9.640783
60.76,1.634031,-0.653612,-9.706144
60.78,1.732073,-0.653612,-9.738825
60.8,1.666712,-0.620932,-9.640783
60.82,1.732073,-0.588251,-9.673463
60.84,1.666712,-0.588251,-9.706144
60.86,1.699392,-0.620932,-9.706144
60.88,1.699392,-0.686293,-9.738825
60.9,1.666712,-0.653612,-9.706144
60.92,1.699392,-0.620932,-9.706144
60.94,1.699392,-0.588251,-9.738825
60.96,1.634031,-0.620932,-9.673463
60.98,1.732073,-0.653612,-9.738825
61,1.732073,-0.620932,-9.673463
61.02,1.699392,-0.620932,-9.673463
61.04,1.699392,-0.588251,-9.706144
61.06,1.732073,-0.653612,-9.706144
61.08,1.699392,-0.653612,-9.706144
61.1,1.666712,-0.620932,-9.706144
61.12,1.666712,-0.620932,-9.706144
61.14,1.699392,-0.620932,-9.738825
61.16,1.732073,-0.653612,-9.706144
61.18,1.666712,-0.620932,-9.706144
61.2,1.666712,-0.653612,-9.804186
61.22,1.699392,-0.653612,-9.738825
61.24,1.764753,-0.620932,-9.706144
61.26,1.732073,-0.588251,-9.771506
61.28,1.666712,-0.620932,-9.738825
61.3,1.699392,-0.653612,-9.706144
61.32,1.732073,-0.686293,-9.673463
61.34,1.666712,-0.588251,-9.706144
61.36,1.634031,-0.588251,-9.673463
61.38,1.666712,-0.588251,-9.673463
61.4,1.699392,-0.653612,-9.706144
61.42,1.699392,-0.653612,-9.706144
61.44,1.666712,-0.588251,-9.706144
61.46,1.634031,-0.588251,-9.673463
61.48,1.699392,-0.620932,-9.706144
61.5,1.699392,-0.620932,-9.673463
61.52,1.666712,-0.620932,-9.640783
61.54,1.666712,-0.588251,-9.706144
61.56,1.666712,-0.620932,-9.706144
61.58,1.666712,-0.686293,-9.640783
61.6,1.666712,-0.653612,-9.706144
61.62,1.666712,-0.620932,-9.673463
61.64,1.666712,-0.588251,-9.706144
61.66,1.699392,-0.588251,-9.673463
61.68,1.699392,-0.620932,-9.673463
61.7,1.732073,-0.620932,-9.706144
61.72,1.666712,-0.620932,-9.706144
61.74,1.666712,-0.620932,-9.640783
61.76,1.699392,-0.588251,-9.738824
61.78,1.699392,-0.588251,-9.706144
61.8,1.699392,-0.588251,-9.673463
61.82,1.699392,-0.620932,-9.738824
61.84,1.699392,-0.653612,-9.706144
61.86,1.699392,-0.620932,-9.706144
61.88,1.699392,-0.620932,-9.706144
61.9,1.666712,-0.620932,-9.706144
61.92,1.666712,-0.620932,-9.706144
61.94,1.732073,-0.588251,-9.738824
61.96,1.699392,-0.588251,-9.738824
61.98,1.666712,-0.620932,-9.706144
62,1.666712,-0.620932,-9.738824
62.02,1.699392,-0.686293,-9.738824
62.04,1.699392,-0.620932,-9.706144
62.06,1.699392,-0.653612,-9.673463
62.08,1.699392,-0.620932,-9.706144
62.1,1.699392,-0.653612,-9.738824
62.12,1.666712,-0.620932,-9.706144
62.14,1.699392,-0.620932,-9.706144
62.16,1.699392,-0.620932,-9.706144
62.18,1.699392,-0.620932,-9.738824
62.2,1.666712,-0.653612,-9.706144
62.22,1.732073,-0.620932,-9.738824
62.24,1.732073,-0.620932,-9.706144
62.26,1.699392,-0.620932,-9.738824
62.28,1.666712,-0.653612,-9.738824
62.3,1.666712,-0.620932,-9.706144
62.32,1.699392,-0.588251,-9.706144
62.34,1.699392,-0.620932,-9.706144
62.36,1.699392,-0.620932,-9.673463
62.38,1.699392,-0.620932,-9.673463
62.4,1.699392,-0.588251,-9.706144
62.42,1.699392,-0.620932,-9.640783
62.44,1.732073,-0.653612,-9.673463
62.46,1.699392,-0.653612,-9.673463
62.48,1.699392,-0.653612,-9.673463
62.5,1.666712,-0.588251,-9.673463
62.52,1.699392,-0.620932,-9.706144
62.54,1.666712,-0.620932,-9.706144
62.56,1.666712,-0.653612,-9.706144
62.58,1.699392,-0.620932,-9.706144
62.6,1.699392,-0.620932,-9.706144
62.62,1.666712,-0.620932,-9.673463
62.64,1.666712,-0.588251,-9.706144
62.66,1.699392,-0.588251,-9.673463
62.68,1.666712,-0.620932,-9.673463
62.7,1.699392,-0.588251,-9.673463
62.72,1.699392,-0.620932,-9.640783
62.74,1.699392,-0.686293,-9.706144
62.76,1.666712,-0.653612,-9.706144
62.78,1.666712,-0.620932,-9.640783
62.8,1.699392,-0.588251,-9.706144
62.82,1.699392,-0.588251,-9.738824
62.84,1.699392,-0.653612,-9.738824
62.86,1.699392,-0.653612,-9.706144
62.88,1.699392,-0.588251,-9.706144
62.9,1.732073,-0.653612,-9.706144
62.92,1.666712,-0.686293,-9.706144
62.94,1.666712,-0.620932,-9.673463
62.96,1.699392,-0.620932,-9.706144
62.98,1.699392,-0.620932,-9.706144
63,1.699392,-0.620932,-9.706144
63.02,1.699392,-0.653612,-9.673463
63.04,1.699392,-0.653612,-9.706144
63.06,1.699392,-0.620932,-9.706144
63.08,1.699392,-0.588251,-9.706144
63.1,1.699392,-0.620932,-9.706144
63.12,1.699392,-0.620932,-9.706144
63.14,1.732073,-0.620932,-9.706144
63.16,1.666712,-0.620932,-9.706144
63.18,1.699392,-0.620932,-9.706144
63.2,1.699392,-0.620932,-9.706144
63.22,1.699392,-0.620932,-9.706144
63.24,1.699392,-0.653612,-9.738824
63.26,1.666712,-0.620932,-9.673463
63.28,1.666712,-0.588251,-9.673463
63.3,1.732073,-0.653612,-9.738824
63.32,1.732073,-0.620932,-9.673463
63.34,1.699392,-0.588251,-9.673463
63.36,1.699392,-0.588251,-9.706144
63.38,1.634031,-0.653612,-9.706144
63.4,1.699392,-0.620932,-9.706144
63.42,1.699392,-0.653612,-9.640783
63.44,1.666712,-0.620932,-9.673463
63.46,1.699392,-0.620932,-9.706144
63.48,1.666712,-0.653612,-9.640783
63.5,1.699392,-0.620932,-9.706144
63.52,1.699392,-0.588251,-9.706144
63.54,1.666712,-0.588251,-9.706144
63.56,1.666712,-0.620932,-9.771506
63.58,1.666712,-0.555571,-9.673463
63.6,1.699392,-0.620932,-9.706144
63.62,1.699392,-0.588251,-9.673463
63.64,1.699392,-0.620932,-9.673463
63.66,1.699392,-0.653612,-9.738824
63.68,1.666712,-0.653612,-9.640783
63.7,1.699392,-0.588251,-9.673464
63.72,1.732073,-0.620932,-9.738825
63.74,1.666712,-0.653612,-9.640783
63.76,1.666712,-0.653612,-9.673464
63.78,1.732073,-0.653612,-9.706144
63.8,1.666712,-0.653612,-9.640783
63.82,1.699392,-0.620932,-9.738825
63.84,1.666712,-0.588251,-9.706144
63.86,1.666712,-0.620932,-9.706144
63.88,1.732073,-0.653612,-9.738825
63.9,1.699392,-0.620932,-9.706144
63.92,1.666712,-0.653612,-9.738825
63.94,1.699392,-0.588251,-9.771505
63.96,1.699392,-0.653612,-9.706144
63.98,1.699392,-0.620932,-9.738825
64,1.699392,-0.653612,-9.738825
64.02,1.634031,-0.620932,-9.673464
64.04,1.699392,-0.653612,-9.738825
64.06,1.699392,-0.620932,-9.706144
64.08,1.666712,-0.620932,-9.706144
64.1,1.699392,-0.620932,-9.738825
64.12,1.732073,-0.620932,-9.706144
64.14,1.666712,-0.620932,-9.706144
64.16,1.699392,-0.653612,-9.738825
64.18,1.666712,-0.686293,-9.673464
64.2,1.699392,-0.620932,-9.673464
64.22,1.699392,-0.620932,-9.738825
64.24,1.634031,-0.620932,-9.673464
64.26,1.699392,-0.555571,-9.771505
64.28,1.732073,-0.588251,-9.706144
64.3,1.732073,-0.653612,-9.706144
64.32,1.699392,-0.686293,-9.771505
64.34,1.634031,-0.620932,-9.673464
64.36,1.634031,-0.588251,-9.640783
64.38,1.634031,-0.555571,-9.706144
64.4,1.732073,-0.555571,-9.640783
64.42,1.764753,-0.620932,-9.673464
64.44,1.699392,-0.653612,-9.673464
64.46,1.634031,-0.653612,-9.673464
64.48,1.699392,-0.653612,-9.706144
64.5,1.699392,-0.620932,-9.673464
64.52,1.699392,-0.620932,-9.706144
64.54,1.634031,-0.653612,-9.738825
64.56,1.634031,-0.653612,-9.640783
64.58,1.732073,-0.620932,-9.706144
64.6,1.699392,-0.653612,-9.738825
64.62,1.634031,-0.653612,-9.673464
64.64,1.666712,-0.653612,-9.738825
64.66,1.732073,-0.620932,-9.706144
64.68,1.732073,-0.555571,-9.673463
64.7,1.699392,-0.588251,-9.706144
64.72,1.666712,-0.620932,-9.706144
64.74,1.732073,-0.653612,-9.706144
64.76,1.699392,-0.620932,-9.706144
64.78,1.634031,-0.555571,-9.673463
64.8,1.666712,-0.588251,-9.706144
64.82,1.699392,-0.653612,-9.706144
64.84,1.699392,-0.653612,-9.673463
64.86,1.699392,-0.686293,-9.706144
64.88,1.666712,-0.653612,-9.706144
64.9,1.699392,-0.620932,-9.706144
64.92,1.699392,-0.620932,-9.738824
64.94,1.699392,-0.620932,-9.738824
64.96,1.634031,-0.620932,-9.738824
64.98,1.666712,-0.555571,-9.738824
65,1.666712,-0.588251,-9.738824
65.02,1.732073,-0.653612,-9.706144
65.04,1.764753,-0.620932,-9.804186
65.06,1.699392,-0.653612,-9.738824
65.08,1.732073,-0.620932,-9.738824
65.1,1.634031,-0.555571,-9.673463
65.12,1.699392,-0.588251,-9.673463
65.14,1.699392,-0.686293,-9.771505
65.16,1.764753,-0.555571,-9.738824
65.18,1.666712,-0.555571,-9.738824
65.2,2.61445,-0.359487,-9.052532
65.22,1.176502,-0.490209,-9.248616
65.24,1.797434,-0.784335,-9.771505
65.26,1.862795,-0.098042,-10.03295
65.28,2.908575,-0.032681,-10.229034
65.3,1.699392,-0.915057,-9.836867
65.32,1.699392,-0.555571,-9.575422
65.34,1.764753,-0.686293,-9.869547
65.36,1.666712,-0.588251,-9.706144
65.38,1.699392,-0.620932,-9.738824
65.4,1.764753,-0.588251,-9.771505
65.42,1.732073,-0.686293,-9.738824
65.44,1.732073,-0.653612,-9.673463
65.46,1.666712,-0.620932,-9.771505
65.48,1.666712,-0.588251,-9.673463
65.5,1.666712,-0.588251,-9.738824
65.52,1.797434,-0.588251,-9.706144
65.54,1.60135,-0.457529,-9.706144
65.56,1.274544,-0.392167,-9.673463
65.58,1.960837,-0.032681,-9.804186
65.6,1.830115,-0.980419,-9.640783
65.62,1.634031,-1.274544,-9.738824
65.64,1.797434,-0.555571,-9.640783
65.66,1.732073,-0.52289,-9.738824
65.68,1.699392,-0.490209,-9.738825
65.7,1.732073,-0.620932,-9.673463
65.72,1.56867,-0.52289,-9.738825
65.74,1.634031,-0.555571,-9.738825
65.76,1.732073,-0.817015,-9.673463
65.78,1.666712,-0.588251,-9.673463
65.8,1.699392,-0.718974,-9.706144
65.82,1.634031,-0.457529,-9.640783
65.84,1.764753,-0.555571,-9.738825
65.86,1.862795,-0.424848,-9.673463
65.88,1.699392,-0.392167,-9.706144
65.9,1.797434,-0.588251,-9.771506
65.92,1.797434,-0.620932,-9.673463
65.94,1.797434,-0.686293,-9.706144
65.96,1.797434,-0.751654,-9.673463
65.98,1.862795,-0.490209,-9.738825
66,1.895476,-0.620932,-9.738825
66.02,1.895476,-0.751654,-9.738825
66.04,1.797434,-0.686293,-9.706144
66.06,1.928157,-0.784335,-9.738825
66.08,1.666712,-0.032681,-9.542741
66.1,2.09156,-0.098042,-9.706144
66.12,2.026198,-0.130722,-9.706144
66.14,1.895476,-0.718974,-9.771506
66.16,2.156921,-0.359487,-9.510061
66.18,1.764753,-0.490209,-9.804186
66.2,2.516408,-1.437947,-9.640783
66.22,2.908575,-1.013099,-9.412018
66.24,3.006617,-1.013099,-9.510061
66.26,2.908575,-1.339905,-9.444699
66.28,2.418366,-1.143822,-9.706144
66.3,2.058879,-0.098042,-9.738825
66.32,2.679811,-0.261445,-9.47738
66.34,2.483727,-0.718974,-9.608102
66.36,2.64713,-0.490209,-9.608102
66.38,2.516408,-0.817015,-9.608102
66.4,2.679811,-0.915057,-9.542741
66.42,2.353005,-0.261445,-9.869547
66.44,2.483727,-0.359487,-9.47738
66.46,2.549088,-0.947738,-9.510061
66.48,2.549088,-0.784335,-9.804186
66.5,2.483727,-0.359487,-9.608102
66.52,2.483727,-0.392167,-9.640783
66.54,2.353005,-0.915057,-9.379338
66.56,2.679811,-0.784335,-9.673463
66.58,2.254963,0.032681,-10.098312
66.6,2.483727,-0.261445,-9.575422
66.62,2.61445,-0.915057,-8.95449
66.64,2.320324,-0.718974,-9.412018
66.66,2.679811,-0.424848,-10.261714
66.68,2.61445,-0.392167,-9.673464
66.7,2.189602,-0.653612,-9.019851
66.72,2.679811,-0.457529,-9.379338
66.74,2.745172,-1.209183,-10.457799
66.76,2.222282,-0.980419,-9.47738
66.78,2.287644,-0.196084,-8.660364
66.8,2.810533,-0.098042,-9.738825
66.82,2.745172,-0.751654,-9.934909
66.84,2.254963,-1.07846,-9.902228
66.86,2.385685,-0.52289,-9.836866
66.88,2.777853,-0.490209,-8.823767
66.9,2.516408,-0.817015,-9.771505
66.92,2.222282,-0.392167,-10.196354
66.94,2.385685,-0.490209,-8.889128
66.96,2.679811,-0.620932,-9.640783
66.98,2.516408,-0.098042,-10.784605
67,2.026198,-0.588251,-9.346658
67.02,2.320324,-0.817015,-9.019851
67.04,2.581769,-0.392167,-9.738825
67.06,2.353005,-0.718974,-10.00027
67.08,2.12424,-0.915057,-8.987171
67.1,2.254963,-0.817015,-9.052532
67.12,2.320324,-0.392167,-10.065631
67.14,2.353005,-0.392167,-10.065631
67.16,2.385685,-0.718974,-8.595003
67.18,2.418366,-0.718974,-9.47738
67.2,2.64713,-0.457529,-10.751924
67.22,2.385685,-0.261445,-9.542741
67.24,2.483727,-0.065361,-9.313977
67.26,2.64713,-0.261445,-9.412019
67.28,2.712491,-0.686293,-9.542741
67.3,2.712491,-1.013099,-9.836866
67.32,2.64713,-0.817015,-9.248615
67.34,2.745172,-0.261445,-9.379338
67.36,2.712491,-0.751654,-10.130993
67.38,2.745172,-1.143822,-9.444699
67.4,2.679811,-0.947738,-9.313977
67.42,2.679811,-0.490209,-10.294395
67.44,2.549088,0.032681,-9.934909
67.46,2.64713,-0.130722,-8.921809
67.48,2.679811,-0.359487,-9.313977
67.5,2.777853,-1.04578,-9.804186
67.52,2.777853,-0.424848,-9.313977
67.54,2.64713,-0.620932,-9.673464
67.56,2.679811,-1.013099,-9.47738
67.58,2.64713,-0.947738,-9.836866
