time,gyro_x,gyro_y,gyro_z
0,-0.019199,-0.002618,-0.005236
0.02,-0.01309,-0.003491,-0.003491
0.04,-0.013963,0,-0.007854
0.06,-0.013963,-0.001745,0.000873
0.08,-0.013963,0.000873,0.001745
0.1,-0.019199,0.002618,0.004363
0.12,-0.028798,0.002618,0.000873
0.14,-0.035779,0.002618,0.001745
0.16,-0.036652,0,-0.004363
0.18,-0.027053,-0.004363,-0.001745
0.2,-0.023562,-0.006109,-0.000873
0.22,-0.012217,-0.001745,-0.001745
0.24,-0.006981,0.002618,-0.002618
0.26,-0.018326,-0.001745,-0.000873
0.28,-0.022689,-0.003491,0.005236
0.3,-0.02618,0,-0.006981
0.32,-0.02618,0,-0.005236
0.34,-0.020071,-0.001745,-0.001745
0.36,-0.01309,0.000873,0.002618
0.38,-0.013963,0.000873,-0.009599
0.4,-0.014835,-0.002618,-0.013963
0.42,-0.007854,-0.004363,-0.008727
0.44,-0.001745,-0.003491,0.002618
0.46,-0.011345,-0.003491,0.000873
0.48,-0.014835,-0.007854,-0.010472
0.5,-0.016581,-0.000873,-0.006109
0.52,-0.014835,0.003491,0.004363
0.54,-0.027925,0,0.006109
0.56,-0.029671,-0.003491,0.005236
0.58,-0.041015,-0.004363,-0.000873
0.6,-0.040143,0,-0.000873
0.62,-0.032289,0.001745,0.000873
0.64,-0.016581,0.000873,-0.006109
0.66,-0.006981,-0.002618,-0.002618
0.68,-0.010472,-0.006109,-0.001745
0.7,-0.019199,0,0.000873
0.72,-0.029671,0.001745,0.004363
0.74,-0.030543,0,0.002618
0.76,-0.019199,-0.002618,-0.001745
0.78,-0.008727,-0.000873,-0.005236
0.8,-0.007854,0.003491,0.005236
0.82,-0.010472,0.004363,0
0.84,-0.016581,0.003491,0.000873
0.86,-0.033161,0.001745,-0.000873
0.88,-0.027053,0.002618,-0.003491
0.9,-0.023562,-0.006109,0.006109
0.92,-0.015708,0.001745,0.009599
0.94,-0.018326,0.000873,0.000873
0.96,-0.020071,-0.000873,-0.007854
0.98,-0.020071,-0.001745,0.001745
1,-0.023562,-0.001745,0.006109
1.02,-0.015708,-0.001745,0.011345
1.04,-0.021817,0.004363,-0.006109
1.06,-0.021817,0,-0.011345
1.08,-0.015708,0,-0.008727
1.1,-0.012217,-0.005236,0.004363
1.12,-0.019199,0.003491,0.009599
1.14,-0.027925,0.000873,0.000873
1.16,-0.030543,-0.004363,-0.000873
1.18,-0.027053,-0.001745,-0.000873
1.2,-0.014835,0.001745,0.005236
1.22,-0.013963,0.003491,0.005236
1.24,-0.01309,0,-0.002618
1.26,-0.017453,-0.003491,0.000873
1.28,-0.022689,-0.003491,0.010472
1.3,-0.030543,0.000873,0.01309
1.32,-0.028798,-0.000873,0.000873
1.34,-0.005236,0.002618,-0.006109
1.36,-0.004363,0.004363,-0.006981
1.38,-0.019199,0.002618,-0.002618
1.4,-0.037525,0.001745,0.003491
1.42,-0.034034,-0.004363,0.002618
1.44,-0.027925,0,-0.006981
1.46,-0.022689,0.004363,-0.010472
1.48,-0.009599,0,-0.001745
1.5,-0.013963,-0.002618,0.003491
1.52,-0.020944,-0.003491,0
1.54,-0.027053,0.002618,0.001745
1.56,-0.022689,-0.000873,-0.004363
1.58,-0.011345,-0.005236,-0.006981
1.6,-0.003491,0,-0.004363
1.62,0.002618,-0.003491,-0.003491
1.64,-0.011345,-0.006981,-0.005236
1.66,-0.031416,-0.006109,-0.003491
1.68,-0.038397,-0.006981,0.000873
1.7,-0.034907,-0.005236,0.004363
1.72,-0.020071,0.004363,-0.000873
1.74,-0.012217,0.002618,-0.002618
1.76,-0.007854,-0.001745,-0.005236
1.78,-0.008727,-0.002618,0
1.8,-0.027925,0.000873,0.002618
1.82,-0.029671,-0.001745,-0.004363
1.84,-0.027925,-0.002618,-0.009599
1.86,-0.025307,-0.006981,-0.001745
1.88,-0.017453,-0.006109,0.006109
1.9,-0.012217,0.000873,0
1.92,-0.014835,-0.002618,-0.009599
1.94,-0.019199,-0.003491,-0.003491
1.96,-0.020071,-0.004363,0.002618
1.98,-0.02618,-0.002618,0.001745
2,-0.019199,-0.002618,-0.001745
2.02,-0.009599,0,-0.006109
2.04,-0.014835,-0.006109,-0.009599
2.06,-0.017453,0.001745,-0.006981
2.08,-0.020944,-0.000873,-0.002618
2.1,-0.025307,-0.003491,-0.003491
2.12,-0.02618,-0.004363,-0.006109
2.14,-0.02618,-0.000873,-0.005236
2.16,-0.022689,-0.004363,0.002618
2.18,-0.01309,-0.001745,0
2.2,-0.013963,-0.005236,-0.004363
2.22,-0.013963,-0.004363,-0.011345
2.24,-0.021817,-0.000873,0.003491
2.26,-0.022689,-0.004363,-0.001745
2.28,-0.02618,-0.005236,-0.004363
2.3,-0.020944,-0.002618,-0.002618
2.32,-0.022689,-0.002618,-0.002618
2.34,-0.019199,-0.001745,0.003491
2.36,-0.011345,-0.004363,-0.002618
2.38,-0.013963,0.001745,-0.003491
2.4,-0.020944,0.002618,-0.003491
2.42,-0.018326,-0.007854,0
2.44,-0.027053,-0.004363,-0.000873
2.46,-0.027053,-0.005236,-0.007854
2.48,-0.016581,-0.001745,0
2.5,-0.011345,0.001745,-0.001745
2.52,-0.004363,-0.001745,0.000873
2.54,-0.008727,-0.000873,0
2.56,-0.020944,-0.002618,-0.003491
2.58,-0.023562,0.000873,0.001745
2.6,-0.022689,0.003491,0.001745
2.62,-0.032289,-0.005236,0.000873
2.64,-0.023562,0,0.001745
2.66,-0.018326,0.000873,-0.004363
2.68,-0.014835,-0.001745,-0.003491
2.7,-0.024435,0.000873,0.003491
2.72,-0.022689,0,0.003491
2.74,-0.024435,-0.003491,-0.001745
2.76,-0.020071,-0.003491,-0.001745
2.78,-0.007854,0.001745,-0.005236
2.8,-0.006981,0,-0.006109
2.82,-0.010472,-0.004363,0.001745
2.84,-0.022689,-0.008727,-0.003491
2.86,-0.034907,-0.001745,-0.006981
2.88,-0.034907,-0.001745,-0.003491
2.9,-0.033161,0.000873,0.005236
2.92,-0.018326,-0.000873,0
2.94,-0.006109,-0.008727,-0.007854
2.96,-0.005236,-0.003491,0
2.98,-0.008727,-0.006981,0.003491
3,-0.018326,-0.002618,-0.001745
3.02,-0.032289,-0.005236,-0.003491
3.04,-0.040143,0,0.000873
3.06,-0.028798,0,0.001745
3.08,-0.018326,0.000873,-0.002618
3.1,-0.01309,0.003491,0
3.12,-0.014835,-0.005236,0.000873
3.14,-0.025307,-0.004363,0.000873
3.16,-0.035779,-0.000873,-0.000873
3.18,-0.025307,0.002618,-0.000873
3.2,-0.016581,-0.004363,0.000873
3.22,-0.007854,-0.002618,0.004363
3.24,-0.005236,-0.001745,-0.011345
3.26,-0.013963,-0.000873,-0.002618
3.28,-0.023562,-0.006109,-0.002618
3.3,-0.030543,0.000873,0.003491
3.32,-0.034907,0,0
3.34,-0.020071,-0.001745,0.000873
3.36,-0.011345,-0.003491,-0.003491
3.38,-0.01309,-0.004363,-0.003491
3.4,-0.014835,0.004363,-0.000873
3.42,-0.023562,0.003491,-0.004363
3.44,-0.030543,-0.000873,-0.005236
3.46,-0.02618,0.001745,-0.002618
3.48,-0.021817,-0.001745,0.004363
3.5,-0.010472,-0.001745,-0.000873
3.52,-0.010472,0.000873,-0.001745
3.54,-0.010472,-0.006109,-0.003491
3.56,-0.023562,-0.010472,-0.003491
3.58,-0.022689,-0.002618,0.002618
3.6,-0.021817,-0.008727,0.006981
3.62,-0.020071,-0.003491,0
3.64,-0.006109,0.000873,-0.006981
3.66,-0.008727,0.001745,-0.006981
3.68,-0.027053,-0.001745,0.008727
3.7,-0.034907,-0.005236,0.003491
3.72,-0.040143,-0.004363,-0.001745
3.74,-0.035779,-0.002618,-0.005236
3.76,-0.019199,0,0.002618
3.78,-0.010472,-0.002618,0.000873
3.8,-0.005236,-0.006981,-0.004363
3.82,-0.015708,0,-0.008727
3.84,-0.020944,0,-0.003491
3.86,-0.031416,0,0.006981
3.88,-0.033161,-0.001745,0.009599
3.9,-0.027925,0,-0.005236
3.92,-0.020071,0,-0.007854
3.94,-0.007854,0.001745,-0.002618
3.96,-0.009599,-0.003491,0.002618
3.98,-0.016581,0.000873,0.001745
4,-0.02618,-0.000873,-0.000873
4.02,-0.030543,-0.006109,-0.005236
4.04,-0.030543,-0.004363,0.006981
4.06,-0.013963,-0.002618,0.002618
4.08,-0.000873,-0.000873,-0.003491
4.1,0.002618,-0.003491,-0.007854
4.12,-0.002618,-0.001745,-0.001745
4.14,-0.019199,-0.002618,0.000873
4.16,-0.02618,0.001745,0.004363
4.18,-0.031416,0.000873,0.006109
4.2,-0.046251,-0.002618,-0.005236
4.22,-0.040143,-0.003491,-0.002618
4.24,-0.027925,0.000873,0.001745
4.26,-0.015708,0,0.007854
4.28,-0.003491,0.001745,-0.002618
4.3,-0.001745,-0.004363,-0.010472
4.32,-0.011345,-0.003491,-0.004363
4.34,-0.029671,-0.003491,0.006109
4.36,-0.035779,-0.000873,0.011345
4.38,-0.029671,0.000873,-0.003491
4.4,-0.016581,0.004363,-0.009599
4.42,0.000873,-0.007854,-0.005236
4.44,0.011345,-0.003491,0.002618
4.46,-0.006109,-0.003491,0.002618
4.48,-0.028798,-0.005236,-0.005236
4.5,-0.047124,0.003491,-0.003491
4.52,-0.041888,0.004363,0.005236
4.54,-0.025307,0,0.008727
4.56,-0.010472,-0.000873,-0.003491
4.58,0.000873,0.001745,-0.012217
4.6,0.002618,0.004363,-0.009599
4.62,-0.015708,-0.001745,0.003491
4.64,-0.030543,-0.001745,0.006109
4.66,-0.03927,-0.000873,0.005236
4.68,-0.037525,-0.006109,-0.001745
4.7,-0.017453,-0.000873,-0.008727
4.72,-0.001745,-0.002618,-0.008727
4.74,-0.006109,0.000873,0.000873
4.76,-0.024435,-0.003491,-0.000873
4.78,-0.041888,-0.000873,-0.000873
4.8,-0.041888,-0.002618,0.000873
4.82,-0.023562,0.004363,-0.000873
4.84,-0.002618,0.006981,0.003491
4.86,0.002618,0.000873,-0.002618
4.88,-0.012217,-0.001745,-0.004363
4.9,-0.027053,-0.000873,-0.001745
4.92,-0.038397,0.003491,0.007854
4.94,-0.030543,0.001745,-0.001745
4.96,-0.020944,-0.004363,-0.004363
4.98,-0.010472,0,-0.000873
5,-0.004363,-0.001745,0.004363
5.02,-0.007854,-0.004363,-0.004363
5.04,-0.027925,-0.002618,-0.004363
5.06,-0.040143,-0.001745,-0.001745
5.08,-0.037525,0,0.003491
5.1,-0.018326,-0.003491,0.002618
5.12,0.000873,-0.002618,-0.006109
5.14,0.012217,-0.005236,-0.003491
5.16,0.004363,-0.001745,-0.006981
5.18,-0.020071,0.002618,0.003491
5.2,-0.041015,0.001745,0.000873
5.22,-0.051487,0.002618,0.004363
5.24,-0.045379,-0.002618,-0.002618
5.26,-0.029671,0.000873,-0.003491
5.28,-0.012217,0.002618,0.001745
5.3,0.004363,-0.004363,-0.001745
5.32,0.003491,-0.001745,-0.005236
5.34,-0.015708,-0.004363,-0.008727
5.36,-0.041888,-0.000873,-0.002618
5.38,-0.064577,0,0.011345
5.4,-0.061959,0.000873,0.008727
5.42,-0.025307,0.001745,-0.004363
5.44,0.018326,0.000873,-0.012217
5.46,0.027053,-0.002618,-0.012217
5.48,0.01309,-0.008727,0.002618
5.5,-0.014835,-0.009599,0.006109
5.52,-0.043633,0.000873,0.001745
5.54,-0.05236,-0.003491,-0.002618
5.56,-0.028798,-0.006981,-0.001745
5.58,0.006981,-0.000873,-0.002618
5.6,0.011345,-0.004363,-0.005236
5.62,-0.011345,-0.002618,-0.000873
5.64,-0.037525,0.001745,0.001745
5.66,-0.054978,-0.000873,0.009599
5.68,-0.042761,-0.007854,0.010472
5.7,-0.023562,-0.007854,0
5.72,-0.006109,0.000873,-0.005236
5.74,0.016581,0.005236,-0.007854
5.76,0.014835,0.001745,-0.007854
5.78,-0.018326,-0.001745,-0.004363
5.8,-0.05236,-0.001745,0.004363
5.82,-0.060214,-0.002618,0.009599
5.84,-0.047997,-0.000873,0.012217
5.86,-0.011345,-0.000873,-0.001745
5.88,0.024435,0.001745,-0.009599
5.9,0.027053,0.004363,-0.013963
5.92,0.009599,0.003491,-0.007854
5.94,-0.02618,-0.002618,0.006109
5.96,-0.060214,0.001745,0.006109
5.98,-0.06545,-0.002618,0.000873
6,-0.047124,0.001745,-0.002618
6.02,-0.005236,-0.003491,-0.002618
6.04,0.020944,-0.003491,-0.001745
6.06,0.012217,-0.004363,-0.000873
6.08,-0.005236,-0.004363,-0.005236
6.1,-0.027925,-0.006109,-0.002618
6.12,-0.046251,-0.006109,0.007854
6.14,-0.041888,-0.000873,0.006981
6.16,-0.034907,0.001745,0.006981
6.18,-0.024435,0,-0.005236
6.2,0.007854,0,-0.010472
6.22,0.011345,-0.002618,-0.008727
6.24,0.000873,0.000873,0.000873
6.26,-0.02618,0.000873,0.005236
6.28,-0.05236,-0.006109,-0.005236
6.3,-0.047997,-0.003491,0.000873
6.32,-0.034907,-0.000873,0.010472
6.34,-0.020944,0.001745,0.006981
6.36,-0.001745,-0.001745,0
6.38,0,0,-0.010472
6.4,-0.01309,-0.000873,-0.006981
6.42,-0.029671,0.005236,-0.004363
6.44,-0.03927,-0.003491,0.003491
6.46,-0.037525,-0.007854,-0.001745
6.48,-0.015708,-0.003491,-0.002618
6.5,0.001745,-0.000873,-0.000873
6.52,0.005236,-0.004363,-0.003491
6.54,-0.009599,-0.012217,-0.001745
6.56,-0.038397,-0.006981,0.001745
6.58,-0.041015,-0.002618,0.005236
6.6,-0.036652,-0.000873,0.008727
6.62,-0.014835,0.000873,-0.002618
6.64,-0.002618,-0.002618,-0.018326
6.66,0.001745,0,-0.014835
6.68,-0.008727,0,0
6.7,-0.031416,-0.000873,0.013963
6.72,-0.050615,-0.003491,0.011345
6.74,-0.043633,-0.006981,-0.001745
6.76,-0.021817,-0.001745,-0.000873
6.78,0.007854,-0.005236,0.001745
6.8,0.013963,-0.003491,0.003491
6.82,0.000873,-0.001745,-0.000873
6.84,-0.030543,-0.003491,-0.002618
6.86,-0.050615,0.000873,0.001745
6.88,-0.048869,-0.004363,0.007854
6.9,-0.027925,0.000873,0.002618
6.92,-0.005236,-0.000873,-0.009599
6.94,0.006109,-0.006109,-0.01309
6.96,0.006109,-0.002618,-0.003491
6.98,-0.01309,-0.003491,0.004363
7,-0.034907,-0.000873,0.002618
7.02,-0.056723,-0.002618,0.001745
7.04,-0.041888,-0.004363,0.006981
7.06,-0.019199,0,0.006109
7.08,0.000873,-0.007854,-0.001745
7.1,0.003491,-0.005236,-0.007854
7.12,-0.007854,-0.001745,-0.006109
7.14,-0.027053,-0.003491,0.003491
7.16,-0.045379,0.002618,0.006981
7.18,-0.043633,0.003491,0.001745
7.2,-0.021817,0.000873,-0.004363
7.22,-0.000873,0,-0.008727
7.24,0.008727,0,-0.000873
7.26,-0.009599,-0.000873,-0.001745
7.28,-0.029671,-0.000873,-0.006109
7.3,-0.049742,-0.006981,-0.003491
7.32,-0.042761,0.001745,0.006109
7.34,-0.021817,0.000873,0
7.36,-0.009599,0,0.000873
7.38,0.001745,0.004363,-0.011345
7.4,-0.002618,0.002618,-0.004363
7.42,-0.015708,-0.000873,0.004363
7.44,-0.037525,-0.000873,0.007854
7.46,-0.044506,-0.002618,0.005236
7.48,-0.041015,-0.002618,0.000873
7.5,-0.025307,-0.003491,0
7.52,-0.002618,-0.000873,-0.000873
7.54,0.001745,-0.001745,-0.001745
7.56,0.001745,0,-0.002618
7.58,-0.015708,-0.000873,-0.003491
7.6,-0.028798,-0.004363,-0.000873
7.62,-0.025307,-0.000873,-0.000873
7.64,-0.023562,-0.000873,0.004363
7.66,-0.014835,-0.001745,0.000873
7.68,-0.013963,0.003491,-0.000873
7.7,-0.017453,-0.002618,0.002618
7.72,-0.020071,-0.002618,0.006981
7.74,-0.02618,-0.000873,0.003491
7.76,-0.034034,0.000873,0.005236
7.78,-0.032289,0.000873,-0.000873
7.8,-0.018326,0.000873,-0.000873
7.82,-0.01309,-0.002618,-0.008727
7.84,-0.007854,-0.000873,-0.003491
7.86,-0.011345,0.001745,-0.006109
7.88,-0.020944,-0.001745,-0.005236
7.9,-0.027053,-0.000873,0.003491
7.92,-0.029671,0,0.002618
7.94,-0.02618,-0.004363,0.000873
7.96,-0.022689,0.001745,0
7.98,-0.01309,-0.004363,-0.002618
8,-0.020944,-0.004363,-0.005236
8.02,-0.024435,-0.003491,-0.002618
8.04,-0.015708,0,-0.003491
8.06,-0.008727,0.000873,-0.006981
8.08,-0.014835,0.001745,-0.001745
8.1,-0.020071,0.001745,0.003491
8.12,-0.02618,-0.004363,0.003491
8.14,-0.025307,-0.003491,0.005236
8.16,-0.031416,-0.003491,-0.007854
8.18,-0.02618,-0.005236,-0.003491
8.2,-0.016581,-0.001745,0.000873
8.22,-0.011345,0.005236,-0.002618
8.24,-0.010472,0.000873,-0.002618
8.26,-0.01309,0.002618,0.001745
8.28,-0.022689,0.000873,0.002618
8.3,-0.025307,0.001745,0.000873
8.32,-0.027053,-0.002618,0.000873
8.34,-0.029671,0.003491,-0.001745
8.36,-0.029671,-0.001745,-0.003491
8.38,-0.022689,0.001745,-0.002618
8.4,-0.017453,-0.001745,-0.002618
8.42,-0.025307,-0.003491,0
8.44,-0.022689,-0.002618,-0.002618
8.46,-0.027925,-0.006109,0
8.48,-0.031416,-0.006109,0.005236
8.5,-0.019199,-0.000873,0.003491
8.52,-0.014835,-0.004363,-0.000873
8.54,-0.006981,-0.001745,0.001745
8.56,-0.013963,-0.002618,0.002618
8.58,-0.020944,0,-0.000873
8.6,-0.019199,0,0.005236
8.62,-0.018326,-0.001745,0.005236
8.64,-0.020071,-0.001745,-0.001745
8.66,-0.014835,0.002618,-0.001745
8.68,-0.019199,-0.004363,0
8.7,-0.021817,-0.005236,0
8.72,-0.024435,-0.004363,0
8.74,-0.019199,-0.002618,0
8.76,-0.016581,0,0.003491
8.78,-0.013963,0.000873,-0.000873
8.8,-0.012217,-0.003491,-0.003491
8.82,-0.017453,0.000873,0.004363
8.84,-0.020944,0.002618,0.003491
8.86,-0.022689,0.000873,0.005236
8.88,-0.022689,-0.000873,-0.000873
8.9,-0.016581,-0.000873,-0.005236
8.92,-0.014835,0,-0.002618
8.94,-0.002618,0,-0.006109
8.96,-0.013963,0,-0.001745
8.98,-0.025307,-0.001745,0.001745
9,-0.031416,-0.006981,-0.001745
9.02,-0.029671,0,-0.002618
9.04,-0.023562,0.004363,-0.001745
9.06,-0.018326,-0.002618,-0.000873
9.08,-0.010472,-0.004363,0.001745
9.1,-0.017453,-0.003491,0.000873
9.12,-0.020944,0.002618,0.006109
9.14,-0.029671,-0.002618,0.004363
9.16,-0.029671,0.002618,0.002618
9.18,-0.031416,-0.004363,0
9.2,-0.024435,-0.004363,0.000873
9.22,-0.010472,-0.002618,0
9.24,-0.011345,-0.006109,-0.005236
9.26,-0.027053,-0.003491,-0.001745
9.28,-0.030543,-0.006109,0.001745
9.3,-0.031416,-0.002618,0.001745
9.32,-0.032289,0.002618,-0.000873
9.34,-0.018326,0.002618,0.002618
9.36,-0.009599,0,-0.004363
9.38,-0.006109,0.000873,-0.001745
9.4,-0.009599,0.001745,-0.007854
9.42,-0.024435,-0.003491,-0.004363
9.44,-0.029671,0.002618,0.004363
9.46,-0.033161,0,0.006109
9.48,-0.024435,0,0.001745
9.5,-0.019199,-0.005236,-0.000873
9.52,-0.018326,-0.002618,-0.008727
9.54,-0.013963,0.001745,-0.001745
9.56,-0.024435,0.000873,0.002618
9.58,-0.032289,-0.002618,0
9.6,-0.035779,-0.000873,0.006981
9.62,-0.027925,-0.001745,0.003491
9.64,-0.012217,-0.006109,-0.001745
9.66,-0.012217,-0.006981,-0.002618
9.68,-0.01309,-0.008727,-0.006981
9.7,-0.018326,-0.000873,-0.005236
9.72,-0.029671,-0.001745,0.005236
9.74,-0.035779,-0.003491,0.002618
9.76,-0.032289,-0.003491,0
9.78,-0.013963,-0.005236,0.000873
9.8,-0.002618,-0.002618,-0.007854
9.82,-0.003491,0.003491,-0.006109
9.84,-0.010472,0.002618,-0.001745
9.86,-0.036652,0.000873,0.000873
9.88,-0.03927,-0.001745,0.005236
9.9,-0.035779,-0.001745,0.006109
9.92,-0.024435,-0.001745,0.002618
9.94,-0.019199,-0.000873,-0.004363
9.96,-0.004363,0.001745,-0.002618
9.98,-0.002618,-0.001745,-0.001745
10,-0.014835,-0.001745,-0.001745
10.02,-0.025307,-0.002618,-0.004363
10.04,-0.02618,-0.000873,-0.007854
10.06,-0.023562,0.004363,-0.003491
10.08,-0.025307,0.002618,-0.002618
10.1,-0.017453,-0.000873,-0.004363
10.12,-0.007854,-0.003491,0.001745
10.14,-0.003491,-0.003491,-0.003491
10.16,-0.019199,-0.001745,-0.000873
10.18,-0.034907,-0.003491,0.003491
10.2,-0.037525,0,0.006981
10.22,-0.028798,0.002618,0.006109
10.24,-0.014835,-0.001745,-0.009599
10.26,-0.004363,-0.001745,-0.014835
10.28,-0.000873,0,-0.004363
10.3,-0.006109,0.001745,-0.002618
10.32,-0.018326,-0.006109,0.002618
10.34,-0.035779,-0.001745,0.003491
10.36,-0.036652,0.001745,0.001745
10.38,-0.034907,0,-0.000873
10.4,-0.019199,0.000873,0.002618
10.42,-0.012217,0.000873,-0.001745
10.44,-0.010472,0.000873,-0.008727
10.46,-0.008727,-0.004363,-0.002618
10.48,-0.020944,0,-0.000873
10.5,-0.027053,0.000873,0.001745
10.52,-0.029671,-0.003491,-0.002618
10.54,-0.028798,-0.006109,-0.003491
10.56,-0.019199,-0.001745,0.003491
10.58,-0.012217,0,0.002618
10.6,-0.009599,0.004363,0
10.62,-0.018326,-0.000873,-0.005236
10.64,-0.029671,-0.006109,0.001745
10.66,-0.034907,-0.000873,0.000873
10.68,-0.02618,-0.002618,0.000873
10.7,-0.014835,0.001745,0
10.72,-0.004363,-0.002618,-0.007854
10.74,-0.006981,-0.007854,-0.003491
10.76,-0.015708,-0.006109,0.007854
10.78,-0.034907,-0.004363,-0.005236
10.8,-0.038397,-0.000873,0.003491
10.82,-0.034034,-0.001745,0.000873
10.84,-0.017453,0.003491,-0.000873
10.86,-0.009599,0.004363,-0.002618
10.88,-0.008727,-0.002618,-0.006981
10.9,-0.022689,-0.006109,-0.000873
10.92,-0.033161,-0.003491,0.005236
10.94,-0.035779,-0.000873,0.006109
10.96,-0.035779,-0.003491,-0.000873
10.98,-0.028798,-0.006109,0.004363
11,-0.009599,-0.004363,-0.001745
11.02,-0.006109,-0.001745,-0.005236
11.04,-0.009599,-0.001745,0.000873
11.06,-0.024435,-0.003491,-0.000873
11.08,-0.034034,0,0.003491
11.1,-0.027925,-0.002618,0.006109
11.12,-0.015708,0,0.000873
11.14,-0.003491,0.000873,-0.001745
11.16,-0.000873,0.002618,0
11.18,-0.009599,-0.001745,-0.002618
11.2,-0.028798,0.002618,-0.006109
11.22,-0.03927,-0.005236,0.003491
11.24,-0.040143,-0.003491,-0.001745
11.26,-0.025307,-0.005236,0.002618
11.28,-0.017453,0.000873,0.001745
11.3,-0.006981,0.000873,-0.002618
11.32,-0.009599,-0.002618,-0.000873
11.34,-0.012217,-0.003491,-0.002618
11.36,-0.030543,0,-0.000873
11.38,-0.034907,-0.003491,0
11.4,-0.029671,0.002618,0.002618
11.42,-0.020944,-0.000873,-0.003491
11.44,-0.007854,0.001745,-0.008727
11.46,-0.001745,-0.001745,-0.005236
11.48,-0.013963,-0.001745,-0.003491
11.5,-0.027053,-0.003491,-0.001745
11.52,-0.034907,-0.000873,-0.002618
11.54,-0.031416,-0.002618,-0.003491
11.56,-0.023562,0,-0.000873
11.58,-0.005236,0.000873,-0.003491
11.6,-0.002618,0.003491,-0.006109
11.62,-0.003491,0.000873,-0.007854
11.64,-0.020071,0.000873,-0.003491
11.66,-0.031416,-0.006981,0.000873
11.68,-0.036652,-0.002618,0.006109
11.7,-0.033161,-0.007854,0.002618
11.72,-0.012217,-0.003491,-0.005236
11.74,-0.001745,-0.004363,-0.005236
11.76,-0.007854,-0.001745,-0.000873
11.78,-0.017453,0.002618,0.001745
11.8,-0.027925,0.002618,-0.000873
11.82,-0.032289,0.000873,-0.004363
11.84,-0.02618,0.002618,-0.002618
11.86,-0.014835,-0.001745,-0.004363
11.88,-0.006981,0,0.000873
11.9,-0.008727,-0.003491,-0.001745
11.92,-0.010472,-0.002618,-0.000873
11.94,-0.02618,0.001745,0
11.96,-0.034034,0,0.000873
11.98,-0.024435,-0.002618,0.002618
12,-0.013963,-0.005236,0
12.02,-0.011345,0.002618,-0.001745
12.04,-0.019199,-0.005236,-0.002618
12.06,-0.017453,-0.001745,-0.000873
12.08,-0.021817,-0.005236,-0.002618
12.1,-0.027925,-0.000873,0
12.12,-0.02618,0.000873,0.000873
12.14,-0.015708,-0.004363,0.000873
12.16,-0.015708,-0.004363,-0.004363
12.18,-0.012217,0.001745,-0.001745
12.2,-0.014835,-0.003491,-0.000873
12.22,-0.022689,0,0
12.24,-0.027925,-0.004363,-0.002618
12.26,-0.027053,-0.003491,0.000873
12.28,-0.017453,-0.002618,-0.003491
12.3,-0.016581,0,-0.001745
12.32,-0.01309,-0.000873,-0.006109
12.34,-0.018326,-0.004363,-0.013963
12.36,-0.020944,-0.004363,-0.000873
12.38,-0.025307,-0.008727,-0.001745
12.4,-0.027053,-0.006981,0.000873
12.42,-0.020071,0,-0.000873
12.44,-0.014835,0.001745,0.000873
12.46,-0.009599,0,0.001745
12.48,-0.013963,-0.000873,0.002618
12.5,-0.019199,0,-0.002618
12.52,-0.015708,-0.000873,-0.003491
12.54,-0.024435,-0.006981,-0.001745
12.56,-0.021817,-0.008727,0.003491
12.58,-0.018326,-0.006109,0
12.6,-0.012217,-0.001745,-0.002618
12.62,-0.014835,-0.002618,0.000873
12.64,-0.020944,-0.001745,0.004363
12.66,-0.029671,-0.002618,-0.002618
12.68,-0.027925,0.000873,-0.004363
12.7,-0.02618,0.002618,-0.006981
12.72,-0.021817,0.000873,-0.000873
12.74,-0.027053,-0.003491,-0.001745
12.76,-0.022689,0.002618,-0.002618
12.78,-0.025307,-0.002618,-0.006981
12.8,-0.023562,-0.003491,-0.006109
12.82,-0.017453,0.000873,-0.001745
12.84,-0.014835,-0.000873,0.003491
12.86,-0.010472,-0.006981,0
12.88,-0.012217,0.000873,-0.004363
12.9,-0.017453,-0.000873,-0.002618
12.92,-0.021817,-0.001745,0.004363
12.94,-0.028798,-0.002618,-0.001745
12.96,-0.022689,-0.003491,0.003491
12.98,-0.014835,-0.000873,0
13,-0.01309,-0.003491,0.001745
13.02,-0.012217,-0.003491,-0.000873
13.04,-0.020944,0.000873,-0.003491
13.06,-0.021817,0.002618,-0.003491
13.08,-0.027053,-0.000873,-0.000873
13.1,-0.027053,0.000873,0.001745
13.12,-0.019199,0.004363,-0.000873
13.14,-0.013963,0,0.003491
13.16,-0.017453,0,0.000873
13.18,-0.020944,-0.000873,0.003491
13.2,-0.021817,-0.004363,0.004363
13.22,-0.02618,-0.005236,-0.000873
13.24,-0.023562,0.000873,-0.001745
13.26,-0.019199,-0.004363,0.000873
13.28,-0.015708,-0.001745,-0.003491
13.3,-0.020071,-0.006109,-0.001745
13.32,-0.017453,-0.002618,-0.001745
13.34,-0.018326,0.001745,0.000873
13.36,-0.020944,-0.003491,-0.001745
13.38,-0.018326,-0.002618,0.002618
13.4,-0.015708,-0.002618,0
13.42,-0.019199,-0.001745,0.003491
13.44,-0.019199,-0.003491,0.004363
13.46,-0.021817,-0.001745,-0.000873
13.48,-0.02618,-0.007854,0
13.5,-0.020071,-0.006981,0.000873
13.52,-0.013963,-0.004363,0.001745
13.54,-0.009599,-0.004363,0.003491
13.56,-0.015708,-0.005236,-0.000873
13.58,-0.019199,-0.005236,0
13.6,-0.024435,0,-0.000873
13.62,-0.025307,-0.004363,0.001745
13.64,-0.020944,0,-0.001745
13.66,-0.015708,-0.000873,-0.001745
13.68,-0.013963,0.000873,0.000873
13.7,-0.010472,0,-0.003491
13.72,-0.014835,0.000873,-0.002618
13.74,-0.022689,-0.005236,0.003491
13.76,-0.027053,-0.005236,-0.000873
13.78,-0.025307,-0.003491,0.000873
13.8,-0.020071,-0.004363,-0.002618
13.82,-0.012217,-0.006981,0
13.84,-0.006109,-0.002618,-0.004363
13.86,-0.014835,-0.004363,-0.006981
13.88,-0.027925,-0.005236,-0.004363
13.9,-0.041015,-0.000873,-0.000873
13.92,-0.034034,-0.002618,0.000873
13.94,-0.020944,-0.002618,-0.004363
13.96,-0.01309,0.001745,-0.006109
13.98,-0.006981,0.002618,0.000873
14,-0.019199,-0.005236,0.002618
14.02,-0.027053,0.002618,0
14.04,-0.041015,0.000873,0.000873
14.06,-0.028798,-0.006981,-0.000873
14.08,-0.014835,-0.003491,-0.005236
14.1,-0.002618,-0.001745,-0.008727
14.12,-0.000873,0.000873,-0.005236
14.14,-0.015708,0,-0.001745
14.16,-0.037525,-0.001745,0.001745
14.18,-0.044506,-0.000873,-0.001745
14.2,-0.044506,0.003491,0.000873
14.22,-0.025307,-0.001745,0.002618
14.24,-0.001745,-0.006109,-0.006109
14.26,0.001745,-0.004363,-0.004363
14.28,-0.009599,-0.000873,-0.004363
14.3,-0.027925,-0.002618,0.003491
14.32,-0.046251,-0.004363,0.005236
14.34,-0.041015,-0.005236,0.005236
14.36,-0.025307,-0.000873,-0.000873
14.38,-0.003491,-0.006109,-0.003491
14.4,0.010472,-0.001745,0
14.42,-0.002618,-0.004363,-0.001745
14.44,-0.027053,-0.001745,0.002618
14.46,-0.036652,0,0.009599
14.48,-0.034907,0.004363,0.011345
14.5,-0.015708,0.003491,0
14.52,0.004363,0,-0.006109
14.54,0.002618,-0.001745,-0.002618
14.56,-0.011345,0.003491,-0.002618
14.58,-0.037525,0.002618,0.006981
14.6,-0.047997,0,0.007854
14.62,-0.032289,0.000873,-0.000873
14.64,-0.01309,0.000873,-0.006109
14.66,0.007854,0.001745,-0.004363
14.68,0.019199,-0.005236,-0.010472
14.7,-0.004363,0.000873,-0.004363
14.72,-0.032289,0.002618,0
14.74,-0.049742,-0.001745,0.006981
14.76,-0.048869,-0.002618,0.002618
14.78,-0.033161,-0.000873,-0.007854
14.8,-0.005236,-0.001745,-0.004363
14.82,0.009599,0,-0.001745
14.84,0.002618,-0.003491,0
14.86,-0.020944,-0.000873,0.005236
14.88,-0.034907,0.001745,0.001745
14.9,-0.043633,-0.003491,0
14.92,-0.03927,-0.003491,-0.001745
14.94,-0.01309,-0.005236,0.003491
14.96,0,-0.004363,-0.006109
14.98,-0.001745,-0.003491,-0.011345
15,-0.009599,-0.001745,-0.006109
15.02,-0.029671,0,0.000873
15.04,-0.034034,-0.001745,0.003491
15.06,-0.034907,-0.003491,0
15.08,-0.024435,-0.000873,-0.005236
15.1,-0.009599,-0.000873,0
15.12,-0.004363,0,-0.002618
15.14,-0.010472,-0.004363,-0.002618
15.16,-0.02618,0.004363,-0.005236
15.18,-0.027053,0.002618,-0.001745
15.2,-0.037525,0.001745,0.003491
15.22,-0.029671,-0.001745,-0.002618
15.24,-0.012217,-0.000873,-0.000873
15.26,-0.005236,-0.000873,-0.003491
15.28,-0.007854,0.001745,0.005236
15.3,-0.017453,0.001745,0.002618
15.32,-0.027925,-0.003491,0.003491
15.34,-0.032289,-0.007854,0.001745
15.36,-0.032289,-0.000873,-0.003491
15.38,-0.023562,-0.001745,-0.001745
15.4,-0.007854,-0.002618,-0.008727
15.42,-0.007854,0.000873,-0.004363
15.44,-0.020944,-0.005236,0.000873
15.46,-0.031416,0,0.000873
15.48,-0.024435,-0.002618,0
15.5,-0.019199,-0.002618,-0.003491
15.52,-0.007854,0.001745,-0.003491
15.54,-0.011345,0,-0.004363
15.56,-0.010472,0.005236,-0.005236
15.58,-0.023562,0.001745,-0.002618
15.6,-0.029671,-0.003491,-0.001745
15.62,-0.02618,0,0.004363
15.64,-0.022689,-0.003491,0.001745
15.66,-0.015708,-0.003491,-0.005236
15.68,-0.010472,0.002618,-0.005236
15.7,-0.015708,-0.006109,-0.003491
15.72,-0.028798,-0.000873,0.000873
15.74,-0.03927,-0.000873,-0.000873
15.76,-0.034034,-0.000873,-0.004363
15.78,-0.004363,0,0.000873
15.8,-0.000873,0,0.000873
15.82,0.001745,-0.002618,-0.001745
15.84,-0.013963,-0.001745,-0.003491
15.86,-0.030543,-0.006981,-0.002618
15.88,-0.034034,-0.006109,0.000873
15.9,-0.031416,0,0.005236
15.92,-0.019199,-0.001745,-0.000873
15.94,-0.009599,-0.000873,-0.006109
15.96,-0.005236,-0.006109,-0.000873
15.98,-0.014835,0,-0.002618
16,-0.028798,-0.006109,0
16.02,-0.028798,-0.005236,0.002618
16.04,-0.027053,0.002618,0.005236
16.06,-0.022689,0.000873,0
16.08,-0.020944,0.000873,-0.001745
16.1,-0.018326,0.000873,-0.000873
16.12,-0.028798,0.001745,0.000873
16.14,-0.034034,-0.001745,-0.001745
16.16,-0.029671,-0.003491,0.000873
16.18,-0.009599,0.000873,0.004363
16.2,0.006109,0,-0.003491
16.22,0,-0.006981,-0.009599
16.24,-0.008727,-0.003491,-0.006109
16.26,-0.028798,0.000873,0.003491
16.28,-0.040143,-0.001745,0.007854
16.3,-0.042761,-0.000873,0.005236
16.32,-0.032289,0.000873,0.005236
16.34,-0.019199,-0.003491,-0.002618
16.36,0.001745,-0.003491,-0.003491
16.38,-0.004363,-0.001745,-0.002618
16.4,-0.013963,-0.002618,0.002618
16.42,-0.024435,0.005236,-0.003491
16.44,-0.034034,-0.002618,0.006981
16.46,-0.037525,-0.000873,-0.002618
16.48,-0.024435,0,-0.005236
16.5,-0.006981,-0.004363,-0.002618
16.52,0.003491,-0.003491,-0.007854
16.54,0.005236,0,-0.006109
16.56,-0.017453,0.000873,-0.006109
16.58,-0.036652,-0.007854,0
16.6,-0.03927,-0.005236,-0.001745
16.62,-0.031416,0.003491,0.005236
16.64,-0.015708,0,-0.001745
16.66,-0.002618,-0.000873,-0.006109
16.68,-0.004363,-0.002618,-0.004363
16.7,-0.021817,-0.002618,0.001745
16.72,-0.036652,0,0.006109
16.74,-0.03927,-0.003491,0.005236
16.76,-0.033161,-0.002618,0.001745
16.78,-0.009599,-0.006109,-0.003491
16.8,0.000873,-0.000873,0
16.82,0.004363,-0.000873,-0.002618
16.84,-0.012217,-0.000873,-0.006109
16.86,-0.028798,-0.000873,-0.000873
16.88,-0.037525,0.000873,0.000873
16.9,-0.03927,-0.000873,0.005236
16.92,-0.027053,-0.008727,0
16.94,-0.011345,-0.005236,-0.002618
16.96,-0.002618,0,-0.001745
16.98,-0.008727,-0.005236,-0.002618
17,-0.02618,-0.001745,0.006109
17.02,-0.035779,-0.001745,0.003491
17.04,-0.03927,0.004363,-0.000873
17.06,-0.029671,-0.003491,0.005236
17.08,-0.014835,-0.006109,0.003491
17.1,-0.005236,0,-0.002618
17.12,0.004363,0,-0.012217
17.14,-0.009599,-0.000873,-0.002618
17.16,-0.027053,0.000873,-0.004363
17.18,-0.031416,-0.000873,0.000873
17.2,-0.02618,-0.002618,0.002618
17.22,-0.016581,0.002618,0.003491
17.24,-0.015708,-0.000873,-0.000873
17.26,-0.021817,-0.002618,0
17.28,-0.024435,-0.001745,0.004363
17.3,-0.023562,-0.005236,-0.001745
17.32,-0.022689,-0.002618,-0.004363
17.34,-0.020071,0.003491,-0.003491
17.36,-0.015708,-0.000873,-0.001745
17.38,-0.010472,-0.003491,-0.002618
17.4,-0.013963,-0.004363,-0.002618
17.42,-0.019199,0.000873,0.005236
17.44,-0.02618,-0.001745,-0.002618
17.46,-0.027053,-0.001745,0.002618
17.48,-0.027053,-0.001745,0.001745
17.5,-0.021817,0,-0.002618
17.52,-0.019199,-0.002618,-0.002618
17.54,-0.013963,0,-0.000873
17.56,-0.007854,0.005236,-0.004363
17.58,-0.014835,0,-0.001745
17.6,-0.035779,-0.001745,0.001745
17.62,-0.041015,-0.001745,0.000873
17.64,-0.033161,-0.004363,0.006109
17.66,-0.021817,0.000873,0.008727
17.68,-0.01309,0.000873,0.006109
17.7,-0.006109,-0.002618,-0.008727
17.72,-0.004363,-0.004363,-0.006109
17.74,-0.013963,0.002618,0
17.76,-0.033161,-0.003491,0.000873
17.78,-0.029671,-0.010472,0.004363
17.8,-0.020944,-0.009599,-0.001745
17.82,-0.01309,-0.001745,-0.006109
17.84,-0.008727,-0.002618,-0.004363
17.86,-0.014835,-0.000873,0
17.88,-0.029671,0.001745,0.003491
17.9,-0.034034,-0.004363,0.006109
17.92,-0.030543,-0.004363,-0.001745
17.94,-0.016581,-0.004363,-0.000873
17.96,-0.008727,0,-0.001745
17.98,-0.007854,-0.000873,-0.006109
18,-0.01309,-0.003491,-0.003491
18.02,-0.025307,-0.004363,0
18.04,-0.035779,-0.000873,0.006109
18.06,-0.036652,0.003491,-0.002618
18.08,-0.024435,-0.001745,-0.004363
18.1,-0.010472,0,-0.000873
18.12,-0.004363,-0.002618,0.000873
18.14,-0.015708,-0.007854,-0.006109
18.16,-0.025307,-0.001745,-0.001745
18.18,-0.044506,-0.000873,0.005236
18.2,-0.037525,0.000873,0.003491
18.22,-0.021817,0.000873,-0.002618
18.24,-0.009599,-0.001745,-0.005236
18.26,-0.003491,0.001745,-0.004363
18.28,-0.007854,0,0
18.3,-0.017453,-0.001745,-0.002618
18.32,-0.027925,0.002618,-0.000873
18.34,-0.028798,-0.001745,-0.005236
18.36,-0.02618,-0.004363,-0.002618
18.38,-0.019199,-0.006109,0
18.4,-0.010472,0.000873,-0.005236
18.42,-0.006109,0.003491,-0.011345
18.44,-0.01309,0.002618,-0.002618
18.46,-0.028798,0,0.004363
18.48,-0.030543,-0.004363,0.003491
18.5,-0.034034,0,0
18.52,-0.028798,0.000873,-0.004363
18.54,-0.01309,-0.002618,0
18.56,-0.009599,-0.006981,-0.003491
18.58,-0.006109,0.001745,0.000873
18.6,-0.013963,0.000873,-0.000873
18.62,-0.019199,0.003491,-0.002618
18.64,-0.021817,-0.002618,0.002618
18.66,-0.020071,0,0
18.68,-0.015708,-0.001745,0.001745
18.7,-0.017453,-0.002618,-0.002618
18.72,-0.013963,-0.003491,0.002618
18.74,-0.01309,-0.004363,0
18.76,-0.018326,-0.003491,0
18.78,-0.024435,-0.001745,-0.002618
18.8,-0.027053,-0.002618,0.005236
18.82,-0.022689,-0.003491,0.003491
18.84,-0.018326,0,-0.002618
18.86,-0.008727,0.000873,-0.001745
18.88,-0.009599,-0.003491,0.005236
18.9,-0.020071,0,0.000873
18.92,-0.020071,0.000873,0
18.94,-0.023562,-0.003491,-0.006981
18.96,-0.019199,0,-0.004363
18.98,-0.020071,-0.000873,-0.003491
19,-0.020071,-0.004363,0.004363
19.02,-0.025307,-0.003491,0.002618
19.04,-0.029671,-0.004363,0.000873
19.06,-0.031416,-0.011345,0.001745
19.08,-0.027053,-0.007854,0.001745
19.1,-0.022689,-0.003491,0.002618
19.12,-0.019199,-0.006109,-0.004363
19.14,-0.01309,-0.005236,-0.006109
19.16,-0.016581,-0.000873,-0.006981
19.18,-0.021817,-0.005236,-0.001745
19.2,-0.022689,-0.000873,0.000873
19.22,-0.027053,-0.004363,-0.007854
19.24,-0.028798,0,-0.001745
19.26,-0.023562,-0.003491,0.000873
19.28,-0.014835,-0.001745,0.003491
19.3,-0.015708,0,0.001745
19.32,-0.014835,0.001745,-0.003491
19.34,-0.02618,-0.002618,-0.002618
19.36,-0.02618,-0.001745,0.000873
19.38,-0.019199,-0.005236,-0.000873
19.4,-0.018326,-0.003491,-0.004363
19.42,-0.01309,-0.003491,0.002618
19.44,-0.017453,0.003491,0.003491
19.46,-0.024435,0,-0.000873
19.48,-0.030543,-0.004363,0.001745
19.5,-0.023562,-0.002618,0.000873
19.52,-0.021817,-0.000873,-0.003491
19.54,-0.020944,0.000873,0
19.56,-0.022689,-0.003491,0.003491
19.58,-0.027925,-0.001745,-0.001745
19.6,-0.027053,-0.008727,-0.003491
19.62,-0.027925,-0.004363,0
19.64,-0.020944,-0.004363,0.002618
19.66,-0.017453,-0.003491,-0.000873
19.68,-0.012217,-0.002618,-0.007854
19.7,-0.007854,-0.004363,-0.006981
19.72,-0.012217,-0.004363,0.003491
19.74,-0.012217,-0.005236,0.008727
19.76,-0.023562,-0.003491,0.001745
19.78,-0.021817,-0.002618,-0.000873
19.8,-0.020071,-0.003491,-0.002618
19.82,-0.027053,-0.003491,-0.006981
19.84,-0.024435,0.001745,0.000873
19.86,-0.020071,-0.001745,-0.011345
19.88,-0.012217,0.001745,-0.003491
19.9,-0.014835,0,0.000873
19.92,-0.023562,0,0.002618
19.94,-0.032289,-0.001745,0.006109
19.96,-0.023562,-0.005236,-0.001745
19.98,-0.014835,-0.003491,-0.003491
20,-0.007854,0.001745,0.001745
20.02,-0.006981,0,-0.000873
20.04,-0.019199,0.008727,-0.001745
20.06,-0.023562,0,-0.002618
20.08,-0.02618,-0.001745,-0.005236
20.1,-0.025307,-0.003491,-0.005236
20.12,-0.017453,0.000873,-0.004363
20.14,-0.018326,-0.002618,-0.003491
20.16,-0.023562,-0.006981,-0.000873
20.18,-0.024435,-0.002618,-0.000873
20.2,-0.027053,-0.002618,-0.000873
20.22,-0.020944,-0.003491,0.002618
20.24,-0.014835,-0.003491,0
20.26,-0.015708,-0.002618,-0.006109
20.28,-0.01309,-0.001745,-0.007854
20.3,-0.015708,-0.003491,-0.001745
20.32,-0.022689,-0.001745,0.001745
20.34,-0.025307,0,-0.000873
20.36,-0.018326,-0.000873,0.002618
20.38,-0.020071,-0.001745,0.002618
20.4,-0.020944,-0.003491,0.001745
20.42,-0.016581,0.000873,0.002618
20.44,-0.023562,0,0.007854
20.46,-0.021817,-0.000873,0
20.48,-0.023562,-0.001745,0.002618
20.5,-0.020944,0,-0.002618
20.52,-0.015708,-0.005236,-0.004363
20.54,-0.013963,-0.004363,-0.000873
20.56,-0.014835,-0.004363,-0.000873
20.58,-0.017453,-0.006981,-0.003491
20.6,-0.021817,0,0.004363
20.62,-0.027053,-0.001745,-0.003491
20.64,-0.022689,-0.000873,0
20.66,-0.015708,-0.006981,-0.005236
20.68,-0.01309,-0.005236,-0.003491
20.7,-0.012217,-0.004363,-0.003491
20.72,-0.019199,-0.001745,0.002618
20.74,-0.023562,-0.000873,-0.001745
20.76,-0.023562,-0.000873,-0.005236
20.78,-0.02618,0.000873,0.005236
20.8,-0.025307,-0.005236,0.001745
20.82,-0.016581,0.000873,-0.001745
20.84,-0.02618,0.006109,-0.000873
20.86,-0.028798,0,0.002618
20.88,-0.022689,-0.002618,0.000873
20.9,-0.017453,0.000873,0.001745
20.92,-0.007854,-0.001745,0.002618
20.94,-0.01309,-0.006981,-0.008727
20.96,-0.024435,-0.003491,-0.006981
20.98,-0.021817,-0.005236,-0.002618
21,-0.023562,-0.004363,-0.000873
21.02,-0.019199,-0.001745,-0.006109
21.04,-0.020944,-0.004363,-0.000873
21.06,-0.016581,-0.006109,0
21.08,-0.021817,0.003491,0.000873
21.1,-0.024435,0.000873,0
21.12,-0.014835,-0.001745,-0.002618
21.14,-0.011345,0,-0.005236
21.16,-0.014835,-0.002618,-0.002618
21.18,-0.023562,0,0.000873
21.2,-0.029671,-0.001745,0.004363
21.22,-0.024435,0.000873,0.001745
21.24,-0.028798,-0.000873,0
21.26,-0.024435,0.000873,-0.000873
21.28,-0.024435,-0.000873,0.007854
21.3,-0.018326,0.001745,0.003491
21.32,-0.016581,0,0
21.34,-0.006981,0.000873,-0.005236
21.36,-0.007854,-0.000873,-0.005236
21.38,-0.011345,0,0.004363
21.4,-0.023562,-0.001745,0
21.42,-0.034034,-0.006981,-0.002618
21.44,-0.044506,-0.003491,-0.000873
21.46,-0.028798,0,0.006109
21.48,-0.010472,-0.003491,0.004363
21.5,0.007854,-0.004363,-0.005236
21.52,0.006981,-0.002618,-0.006981
21.54,-0.016581,0,-0.002618
21.56,-0.034907,-0.004363,0.007854
21.58,-0.044506,-0.002618,0.002618
21.6,-0.038397,-0.000873,-0.002618
21.62,-0.019199,0.000873,-0.011345
21.64,-0.004363,-0.002618,-0.006109
21.66,0.000873,-0.000873,-0.001745
21.68,-0.009599,-0.005236,0.001745
21.7,-0.019199,0,-0.002618
21.72,-0.029671,-0.000873,-0.000873
21.74,-0.033161,-0.002618,0.005236
21.76,-0.018326,-0.002618,0.005236
21.78,-0.007854,-0.006109,-0.006981
21.8,-0.004363,-0.005236,-0.010472
21.82,-0.008727,-0.001745,-0.001745
21.84,-0.027925,-0.002618,0.007854
21.86,-0.040143,-0.001745,0.006109
21.88,-0.03927,-0.001745,0.001745
21.9,-0.024435,-0.000873,0.002618
21.92,0,-0.005236,-0.002618
21.94,0.005236,-0.003491,0.000873
21.96,-0.006981,-0.001745,-0.004363
21.98,-0.030543,0.003491,-0.007854
22,-0.03927,-0.004363,0.000873
22.02,-0.043633,-0.002618,0.006981
22.04,-0.034907,0.002618,0.005236
22.06,-0.015708,0.000873,-0.006981
22.08,-0.000873,0,-0.009599
22.1,-0.004363,0,-0.006109
22.12,-0.021817,0.001745,0.002618
22.14,-0.033161,0,0.003491
22.16,-0.041888,-0.001745,-0.002618
22.18,-0.035779,-0.001745,-0.000873
22.2,-0.01309,-0.004363,0.000873
22.22,-0.002618,-0.002618,0.003491
22.24,-0.002618,-0.004363,0.001745
22.26,-0.011345,-0.003491,-0.006109
22.28,-0.035779,0.000873,-0.001745
22.3,-0.044506,-0.001745,0.005236
22.32,-0.034907,-0.005236,0.002618
22.34,-0.016581,0.000873,0.002618
22.36,0.001745,-0.003491,-0.010472
22.38,0.006109,0,-0.006109
22.4,-0.009599,0.003491,0.001745
22.42,-0.027925,0.005236,0.002618
22.44,-0.036652,-0.004363,-0.005236
22.46,-0.028798,-0.003491,0.000873
22.48,-0.017453,-0.002618,-0.001745
22.5,-0.006109,-0.001745,-0.001745
22.52,-0.000873,0,-0.014835
22.54,-0.012217,-0.003491,-0.009599
22.56,-0.030543,-0.004363,0.005236
22.58,-0.040143,-0.002618,0.007854
22.6,-0.040143,-0.004363,0.002618
22.62,-0.027925,-0.001745,-0.000873
22.64,-0.012217,-0.004363,-0.001745
22.66,0.005236,-0.001745,0.003491
22.68,-0.001745,-0.006109,0.006981
22.7,-0.016581,-0.005236,-0.000873
22.72,-0.032289,-0.004363,-0.007854
22.74,-0.038397,0.000873,-0.004363
22.76,-0.037525,0.000873,0.006981
22.78,-0.014835,-0.001745,0.004363
22.8,0.005236,-0.003491,-0.000873
22.82,0.004363,0.000873,-0.007854
22.84,-0.020944,-0.003491,0.004363
22.86,-0.03927,-0.000873,0.003491
22.88,-0.048869,-0.004363,0.006109
22.9,-0.03927,0.000873,0.001745
22.92,-0.012217,-0.004363,-0.006981
22.94,0.001745,-0.003491,-0.001745
22.96,-0.002618,-0.004363,0.002618
22.98,-0.031416,-0.008727,0.004363
23,-0.047997,-0.003491,0.003491
23.02,-0.043633,0.002618,0.008727
23.04,-0.02618,-0.006981,0.004363
23.06,-0.003491,-0.001745,-0.006981
23.08,-0.000873,-0.003491,-0.006981
23.1,-0.001745,-0.000873,-0.006981
23.12,-0.018326,-0.002618,0
23.14,-0.035779,-0.001745,0.006109
23.16,-0.041015,0,-0.001745
23.18,-0.031416,-0.001745,-0.002618
23.2,-0.021817,-0.003491,-0.004363
23.22,-0.012217,-0.002618,0.003491
23.24,-0.010472,-0.004363,-0.001745
23.26,-0.010472,-0.008727,-0.004363
23.28,-0.015708,-0.009599,-0.005236
23.3,-0.033161,-0.004363,-0.000873
23.32,-0.041015,-0.002618,0.005236
23.34,-0.040143,0,0.004363
23.36,-0.019199,0.000873,-0.000873
23.38,0.001745,0,-0.002618
23.4,0.010472,-0.002618,-0.001745
23.42,-0.008727,-0.005236,0.000873
23.44,-0.029671,-0.006981,0.001745
23.46,-0.049742,-0.001745,-0.002618
23.48,-0.043633,0.001745,0.000873
23.5,-0.02618,0.006109,0.000873
23.52,-0.009599,-0.000873,-0.006981
23.54,0.000873,-0.000873,-0.007854
23.56,-0.002618,-0.005236,-0.006981
23.58,-0.023562,-0.001745,-0.003491
23.6,-0.043633,0.005236,0.004363
23.62,-0.05236,0,0.006981
23.64,-0.03927,-0.000873,-0.001745
23.66,-0.004363,-0.003491,-0.001745
23.68,0.010472,-0.002618,0
23.7,0.002618,-0.003491,-0.007854
23.72,-0.007854,-0.005236,-0.005236
23.74,-0.02618,-0.004363,-0.003491
23.76,-0.043633,-0.005236,0.007854
23.78,-0.041888,-0.000873,0.010472
23.8,-0.033161,-0.000873,-0.000873
23.82,-0.012217,-0.003491,-0.003491
23.84,-0.001745,-0.004363,0.000873
23.86,-0.004363,-0.006109,-0.003491
23.88,-0.018326,0,-0.005236
23.9,-0.029671,-0.003491,0.002618
23.92,-0.035779,-0.002618,-0.000873
23.94,-0.034034,-0.003491,0.001745
23.96,-0.028798,-0.005236,-0.001745
23.98,-0.006981,-0.001745,-0.004363
24,-0.009599,-0.001745,-0.006981
24.02,-0.016581,-0.005236,-0.000873
24.04,-0.018326,0,-0.004363
24.06,-0.021817,0,-0.001745
24.08,-0.020944,-0.000873,-0.008727
24.1,-0.012217,-0.003491,-0.006981
24.12,-0.01309,0.004363,0.002618
24.14,-0.011345,0.002618,-0.003491
24.16,-0.018326,0.004363,0.002618
24.18,-0.027925,0.002618,-0.000873
24.2,-0.025307,0.001745,-0.001745
24.22,-0.020944,0.001745,-0.001745
24.24,-0.023562,0,0.000873
24.26,-0.018326,0.003491,-0.002618
24.28,-0.01309,0.003491,-0.010472
24.3,-0.020944,0,-0.003491
24.32,-0.020071,-0.000873,-0.002618
24.34,-0.020071,-0.002618,-0.003491
24.36,-0.015708,-0.006109,-0.002618
24.38,-0.015708,-0.008727,-0.002618
24.4,-0.006981,-0.001745,0
24.42,-0.015708,-0.003491,0.001745
24.44,-0.016581,-0.000873,-0.001745
24.46,-0.02618,-0.001745,-0.003491
24.48,-0.027925,-0.004363,-0.002618
24.5,-0.020071,0.000873,0.005236
24.52,-0.009599,0,0.005236
24.54,-0.006981,0.000873,0.002618
24.56,-0.022689,-0.003491,-0.000873
24.58,-0.028798,-0.002618,-0.002618
24.6,-0.028798,-0.003491,0
24.62,-0.020944,-0.000873,-0.002618
24.64,-0.011345,-0.006109,-0.001745
24.66,-0.001745,-0.001745,-0.002618
24.68,-0.010472,-0.000873,-0.006981
24.7,-0.027925,-0.004363,0.006109
24.72,-0.028798,0.000873,0.005236
24.74,-0.027925,-0.005236,-0.002618
24.76,-0.015708,-0.003491,-0.010472
24.78,-0.005236,-0.002618,-0.000873
24.8,-0.009599,-0.002618,0.001745
24.82,-0.020071,0.000873,0.005236
24.84,-0.033161,0,-0.001745
24.86,-0.027925,0,-0.000873
24.88,-0.024435,-0.000873,0.007854
24.9,-0.016581,-0.000873,0.006981
24.92,-0.012217,-0.006981,0.001745
24.94,-0.017453,-0.001745,-0.001745
24.96,-0.01309,-0.007854,-0.006109
24.98,-0.012217,-0.000873,0.002618
25,-0.014835,0,0.005236
25.02,-0.022689,-0.002618,-0.001745
25.04,-0.025307,-0.005236,-0.006981
25.06,-0.030543,-0.002618,-0.000873
25.08,-0.027925,0.001745,0.006981
25.1,-0.022689,-0.003491,0.006981
25.12,-0.019199,0,-0.004363
25.14,-0.013963,-0.003491,-0.006981
25.16,-0.020944,-0.004363,0.003491
25.18,-0.020071,-0.002618,0.007854
25.2,-0.018326,-0.003491,0.005236
25.22,-0.02618,-0.005236,-0.003491
25.24,-0.028798,-0.004363,-0.001745
25.26,-0.028798,-0.001745,0.002618
25.28,-0.027053,-0.003491,0.004363
25.3,-0.022689,-0.006109,-0.003491
25.32,-0.014835,-0.003491,-0.007854
25.34,-0.011345,-0.002618,-0.002618
25.36,-0.011345,-0.002618,0.000873
25.38,-0.020944,-0.000873,0.001745
25.4,-0.028798,-0.005236,0.004363
25.42,-0.02618,-0.001745,-0.000873
25.44,-0.017453,-0.002618,0.001745
25.46,-0.016581,0.002618,-0.003491
25.48,-0.012217,-0.001745,0.003491
25.5,-0.019199,0,-0.000873
25.52,-0.023562,0.001745,0.003491
25.54,-0.025307,-0.004363,0.000873
25.56,-0.023562,0.001745,-0.002618
25.58,-0.020071,0.001745,-0.001745
25.6,-0.017453,-0.003491,-0.003491
25.62,-0.014835,0,-0.000873
25.64,-0.022689,0.002618,0.003491
25.66,-0.021817,0.001745,0.001745
25.68,-0.029671,-0.005236,0.001745
25.7,-0.024435,-0.002618,-0.005236
25.72,-0.020071,0.004363,0.003491
25.74,-0.013963,0.005236,0.000873
25.76,-0.018326,-0.004363,-0.001745
25.78,-0.021817,-0.002618,0
25.8,-0.024435,0.006981,-0.000873
25.82,-0.021817,-0.000873,0.003491
25.84,-0.014835,0,-0.000873
25.86,-0.015708,-0.003491,-0.000873
25.88,-0.017453,-0.002618,0.002618
25.9,-0.018326,-0.002618,-0.004363
25.92,-0.020071,-0.002618,-0.003491
25.94,-0.017453,0,0.001745
25.96,-0.023562,-0.000873,0.000873
25.98,-0.022689,-0.001745,-0.002618
26,-0.021817,0,-0.009599
26.02,-0.017453,-0.001745,-0.011345
26.04,-0.017453,-0.003491,-0.002618
26.06,-0.023562,-0.000873,0.002618
26.08,-0.022689,-0.001745,0.001745
26.1,-0.021817,-0.000873,-0.007854
26.12,-0.023562,0,-0.003491
26.14,-0.013963,-0.000873,0.001745
26.16,-0.007854,-0.000873,-0.000873
26.18,-0.013963,0,0
26.2,-0.028798,-0.006109,-0.002618
26.22,-0.032289,-0.003491,-0.000873
26.24,-0.021817,-0.005236,0.002618
26.26,-0.020071,-0.000873,-0.001745
26.28,-0.012217,0.001745,-0.007854
26.3,-0.01309,-0.006109,-0.006109
26.32,-0.017453,-0.000873,0.001745
26.34,-0.025307,-0.003491,0.007854
26.36,-0.037525,-0.000873,0.002618
26.38,-0.031416,-0.005236,-0.000873
26.4,-0.020944,-0.008727,-0.004363
26.42,-0.012217,0.000873,-0.004363
26.44,-0.002618,-0.008727,0
26.46,-0.016581,-0.006109,-0.003491
26.48,-0.030543,-0.000873,-0.002618
26.5,-0.036652,0.001745,0.005236
26.52,-0.035779,-0.002618,0.002618
26.54,-0.031416,0,0.006109
26.56,-0.016581,0,0
26.58,-0.007854,0.000873,-0.000873
26.6,-0.003491,-0.000873,0
26.62,-0.010472,-0.006981,-0.001745
26.64,-0.027053,0,0.001745
26.66,-0.03927,-0.004363,0.004363
26.68,-0.032289,-0.005236,-0.001745
26.7,-0.012217,-0.000873,0
26.72,0,-0.003491,-0.007854
26.74,-0.003491,0.000873,-0.007854
26.76,-0.011345,0.002618,0.000873
26.78,-0.024435,-0.002618,-0.000873
26.8,-0.041015,0.000873,0.003491
26.82,-0.038397,-0.001745,-0.004363
26.84,-0.02618,-0.006981,-0.004363
26.86,-0.01309,0.003491,-0.001745
26.88,-0.006981,0.002618,-0.002618
26.9,-0.010472,-0.004363,0
26.92,-0.023562,-0.000873,0.001745
26.94,-0.029671,0.003491,0
26.96,-0.036652,0.005236,-0.002618
26.98,-0.021817,0.003491,0
27,-0.006981,0.001745,-0.000873
27.02,-0.004363,-0.001745,0.003491
27.04,-0.01309,-0.002618,-0.001745
27.06,-0.024435,-0.000873,0.002618
27.08,-0.034907,0.002618,-0.003491
27.1,-0.035779,0.000873,0
27.12,-0.021817,-0.000873,-0.002618
27.14,-0.008727,0.000873,0.002618
27.16,-0.013963,0.002618,0.000873
27.18,-0.011345,0.001745,-0.004363
27.2,-0.023562,0,-0.004363
27.22,-0.031416,-0.002618,0.001745
27.24,-0.028798,0.001745,0.002618
27.26,-0.032289,0.005236,0
27.28,-0.020071,-0.007854,-0.003491
27.3,-0.012217,-0.005236,-0.005236
27.32,-0.012217,-0.001745,0.003491
27.34,-0.009599,-0.004363,0.001745
27.36,-0.016581,0,0.004363
27.38,-0.032289,-0.001745,0
27.4,-0.022689,0.002618,0.006109
27.42,-0.016581,0.001745,0.006981
27.44,-0.009599,0.002618,0.004363
27.46,-0.004363,0.002618,-0.006981
27.48,-0.011345,-0.001745,0
27.5,-0.031416,0.003491,0.002618
27.52,-0.042761,0,0.006109
27.54,-0.037525,-0.000873,0.006109
27.56,-0.028798,-0.004363,0.005236
27.58,-0.01309,-0.002618,-0.005236
27.6,-0.002618,-0.001745,-0.002618
27.62,-0.009599,0.000873,-0.004363
27.64,-0.023562,0.002618,0.000873
27.66,-0.031416,0.001745,0.001745
27.68,-0.037525,0,0.002618
27.7,-0.029671,0.003491,0.004363
27.72,-0.020071,-0.001745,-0.001745
27.74,-0.01309,0.000873,0.000873
27.76,-0.007854,-0.001745,0.000873
27.78,-0.017453,-0.002618,0.000873
27.8,-0.017453,-0.004363,0.003491
27.82,-0.020071,0.000873,-0.004363
27.84,-0.020071,-0.004363,-0.002618
27.86,-0.018326,0,0.006109
27.88,-0.014835,0.001745,0.009599
27.9,-0.022689,0.001745,-0.000873
27.92,-0.02618,0.000873,-0.003491
27.94,-0.027053,-0.000873,0.002618
27.96,-0.022689,-0.004363,0.006109
27.98,-0.020071,0.000873,0.001745
28,-0.017453,-0.003491,0.001745
28.02,-0.021817,-0.001745,-0.004363
28.04,-0.024435,0.006109,-0.006981
28.06,-0.018326,0.002618,0.004363
28.08,-0.002618,-0.003491,0.002618
28.1,0.014835,-0.001745,-0.006981
28.12,0.005236,0.000873,-0.007854
28.14,-0.018326,-0.003491,0.001745
28.16,-0.041888,-0.003491,0.001745
28.18,-0.068941,-0.003491,0.002618
28.2,-0.068941,-0.001745,0.002618
28.22,-0.040143,-0.001745,0.009599
28.24,-0.008727,0.000873,0.003491
28.26,0.016581,-0.003491,-0.006109
28.28,0.017453,-0.002618,-0.009599
28.3,-0.002618,-0.006109,-0.000873
28.32,-0.021817,-0.002618,0.001745
28.34,-0.038397,-0.003491,0.006981
28.36,-0.032289,-0.002618,0.006981
28.38,-0.018326,-0.004363,0.000873
28.4,-0.003491,-0.007854,-0.006981
28.42,-0.001745,-0.001745,-0.012217
28.44,-0.014835,-0.006109,-0.009599
28.46,-0.031416,-0.002618,0.013963
28.48,-0.047124,-0.001745,0.006109
28.5,-0.047997,-0.006109,0.001745
28.52,-0.034034,-0.007854,-0.007854
28.54,-0.018326,-0.004363,-0.000873
28.56,-0.000873,-0.001745,-0.005236
28.58,0.001745,-0.005236,0.000873
28.6,-0.005236,-0.004363,0.005236
28.62,-0.027925,-0.006109,0.003491
28.64,-0.034034,0.000873,0.006981
28.66,-0.034034,-0.002618,0
28.68,-0.023562,-0.005236,0.002618
28.7,-0.017453,-0.010472,0
28.72,-0.012217,-0.002618,-0.001745
28.74,-0.012217,-0.000873,-0.006109
28.76,-0.011345,0,-0.000873
28.78,-0.018326,-0.003491,0.002618
28.8,-0.023562,0.001745,0.000873
28.82,-0.022689,-0.001745,-0.005236
28.84,-0.021817,-0.000873,0.000873
28.86,-0.019199,-0.006109,0.013963
28.88,-0.018326,-0.004363,0.004363
28.9,-0.020071,0.004363,-0.006981
28.92,-0.023562,-0.002618,-0.007854
28.94,-0.025307,-0.003491,-0.001745
28.96,-0.029671,-0.002618,0.006981
28.98,-0.02618,0.001745,0.006981
29,-0.02618,0.003491,0.005236
29.02,-0.014835,-0.006981,-0.006109
29.04,-0.006981,0.007854,-0.002618
29.06,-0.005236,-0.004363,-0.003491
29.08,-0.023562,0.001745,-0.002618
29.1,-0.034907,-0.006981,0.009599
29.12,-0.029671,-0.001745,0.006109
29.14,-0.015708,-0.000873,-0.008727
29.16,0.003491,0.001745,-0.010472
29.18,-0.008727,-0.002618,-0.009599
29.2,-0.016581,-0.008727,-0.008727
29.22,-0.020944,-0.004363,-0.006109
29.24,-0.027925,-0.001745,0.003491
29.26,-0.040143,-0.004363,0.007854
29.28,-0.041888,-0.000873,0.006109
29.3,-0.033161,-0.012217,0.004363
29.32,-0.009599,-0.007854,-0.004363
29.34,0.001745,-0.006109,-0.006109
29.36,-0.006109,-0.003491,-0.006109
29.38,-0.020071,-0.006109,0
29.4,-0.031416,-0.003491,0.004363
29.42,-0.044506,0.000873,0.005236
29.44,-0.045379,-0.005236,-0.001745
29.46,-0.019199,-0.006981,0
29.48,-0.002618,-0.006981,-0.001745
29.5,0.004363,-0.001745,-0.008727
29.52,-0.005236,-0.013963,-0.011345
29.54,-0.010472,-0.008727,-0.010472
29.56,-0.013963,-0.015708,-0.009599
29.58,-0.008727,-0.018326,-0.011345
29.6,-0.017453,-0.011345,-0.012217
29.62,-0.035779,-0.017453,-0.006109
29.64,-0.053233,0.012217,0.003491
29.66,-0.045379,-0.001745,0
29.68,0.001745,0.008727,-0.003491
29.7,0.006981,-0.014835,-0.010472
29.72,0.01309,-0.012217,-0.007854
29.74,0,0.006109,-0.008727
29.76,-0.020944,-0.013963,-0.018326
29.78,-0.029671,-0.015708,-0.023562
29.8,-0.020944,-0.002618,-0.021817
29.82,-0.02618,-0.001745,-0.010472
29.84,-0.034034,-0.016581,0.001745
29.86,-0.056723,-0.031416,0.001745
29.88,-0.088139,-0.006109,0.011345
29.9,-0.082903,0.001745,0.008727
29.92,-0.051487,-0.042761,-0.002618
29.94,0.003491,-0.040143,-0.008727
29.96,0.004363,-0.002618,-0.015708
29.98,0.008727,-0.038397,-0.030543
30,0.01309,-0.017453,-0.042761
30.02,0.010472,-0.050615,-0.047124
30.04,0.000873,-0.040143,-0.053233
30.06,0.025307,0.040143,-0.07854
30.08,0.002618,-0.060214,-0.09512
30.1,-0.009599,-0.034907,-0.098611
30.12,-0.035779,-0.007854,-0.110828
30.14,-0.062832,-0.048869,-0.112574
30.16,-0.102102,-0.008727,-0.130027
30.18,-0.07854,-0.055851,-0.132645
30.2,-0.022689,0.06545,-0.14399
30.22,0.034034,-0.023562,-0.14399
30.24,0.03927,-0.006109,-0.167552
30.26,0.030543,0.089884,-0.208567
30.28,-0.011345,-0.08203,-0.251327
30.3,-0.064577,-0.047124,-0.287107
30.32,-0.027925,0.101229,-0.328995
30.34,-0.037525,-0.01309,-0.316777
30.36,0.018326,0.083776,-0.337721
30.38,0.047124,0.029671,-0.345575
30.4,0.000873,-0.029671,-0.349066
30.42,-0.015708,0.048869,-0.394444
30.44,-0.057596,0.049742,-0.369137
30.46,-0.083776,0.070686,-0.326377
30.48,-0.036652,0.125664,-0.31765
30.5,0.030543,0.001745,-0.29147
30.52,0.050615,0.010472,-0.262672
30.54,0.076794,0.042761,-0.269653
30.56,0.069813,0.044506,-0.246964
30.58,0.034907,0.020944,-0.219039
30.6,-0.012217,-0.019199,-0.201586
30.62,-0.053233,-0.025307,-0.185878
30.64,-0.06545,0.044506,-0.169297
30.66,-0.023562,0.03927,-0.151844
30.68,0.044506,0.020944,-0.145735
30.7,0.110828,-0.034034,-0.125664
30.72,0.137881,-0.021817,-0.096866
30.74,0.109956,0.001745,-0.060214
30.76,-0.005236,-0.014835,-0.02618
30.78,-0.062832,-0.02618,-0.005236
30.8,-0.1213,-0.043633,0.024435
30.82,-0.128282,-0.017453,0.057596
30.84,-0.058469,-0.001745,0.090757
30.86,0.042761,-0.03927,0.124791
30.88,0.064577,-0.043633,0.141372
30.9,0.055851,-0.016581,0.14748
30.92,-0.006981,-0.015708,0.171042
30.94,-0.086394,-0.022689,0.179769
30.96,-0.124791,-0.080285,0.181514
30.98,-0.112574,-0.041015,0.181514
31,-0.106465,-0.013963,0.178896
31.02,-0.080285,-0.02618,0.172788
31.04,-0.054978,-0.025307,0.168424
31.06,-0.045379,-0.023562,0.164061
31.08,-0.049742,0.034034,0.157952
31.1,-0.048869,0.018326,0.158825
31.12,-0.061087,0,0.149226
31.14,-0.031416,0.020071,0.140499
31.16,-0.003491,0.072431,0.141372
31.18,0.017453,0.056723,0.135263
31.2,-0.019199,0.02618,0.127409
31.22,-0.022689,0.045379,0.123918
31.24,-0.089884,0.073304,0.126536
31.26,-0.10472,0.074176,0.133518
31.28,-0.076794,-0.001745,0.142244
31.3,0.000873,0.051487,0.146608
31.32,0.061959,0.081158,0.166679
31.34,0.102974,0.015708,0.17366
31.36,0.049742,0.035779,0.174533
31.38,0.037525,-0.035779,0.187623
31.4,-0.09512,-0.003491,0.19984
31.42,-0.153589,0.006981,0.207694
31.44,-0.168424,-0.075049,0.230383
31.46,-0.090757,-0.011345,0.253073
31.48,-0.006981,0.020071,0.293215
31.5,0.08203,-0.020944,0.315032
31.52,0.067195,-0.043633,0.31765
31.54,0.034034,-0.061959,0.34383
31.56,-0.066323,-0.040143,0.365646
31.58,-0.127409,-0.042761,0.374373
31.6,-0.150098,-0.061959,0.379609
31.62,-0.112574,-0.044506,0.393572
31.64,-0.08203,-0.002618,0.410152
31.66,-0.048869,-0.023562,0.406662
31.68,-0.047997,-0.041888,0.402298
31.7,-0.029671,-0.027053,0.401426
31.72,-0.074176,0.006109,0.403171
31.74,-0.115192,-0.023562,0.385718
31.76,-0.149226,-0.047124,0.370882
31.78,-0.137008,-0.077667,0.355175
31.8,-0.126536,-0.051487,0.356047
31.82,-0.10472,-0.022689,0.335103
31.84,-0.090757,-0.054105,0.314159
31.86,-0.05236,-0.040143,0.311541
31.88,-0.029671,-0.028798,0.310669
31.9,-0.041888,-0.068068,0.313287
31.92,-0.072431,-0.033161,0.288852
31.94,-0.100356,-0.085521,0.290597
31.96,-0.097738,-0.075049,0.289725
31.98,-0.076794,-0.021817,0.283616
32,-0.064577,-0.071559,0.268781
32.02,-0.055851,-0.071559,0.241728
32.04,-0.042761,-0.040143,0.240855
32.06,-0.034034,-0.030543,0.23911
32.08,-0.030543,-0.034034,0.222529
32.1,-0.061959,-0.062832,0.205076
32.12,-0.064577,-0.037525,0.198968
32.14,-0.085521,-0.021817,0.197222
32.16,-0.063705,-0.046251,0.185878
32.18,-0.062832,-0.045379,0.168424
32.2,-0.035779,-0.019199,0.152716
32.22,-0.015708,-0.014835,0.151844
32.24,-0.006109,0.015708,0.146608
32.26,-0.018326,-0.021817,0.125664
32.28,-0.061087,-0.009599,0.100356
32.3,-0.068068,-0.000873,0.082903
32.32,-0.054978,0.006109,0.067195
32.34,-0.014835,0.003491,0.054978
32.36,-0.002618,-0.021817,0.027053
32.38,-0.008727,-0.023562,-0.006981
32.4,-0.02618,-0.002618,-0.010472
32.42,-0.021817,0,-0.015708
32.44,-0.016581,-0.01309,-0.028798
32.46,-0.058469,0.022689,-0.043633
32.48,-0.060214,-0.043633,-0.063705
32.5,-0.042761,0.075049,-0.071558
32.52,-0.007854,0.007854,-0.070686
32.54,0.023562,-0.014835,-0.092502
32.56,-0.019199,0.029671,-0.113446
32.58,-0.027053,-0.046251,-0.129154
32.6,-0.044506,0.038397,-0.139626
32.62,-0.043633,0.035779,-0.142244
32.64,-0.017453,-0.035779,-0.143117
32.66,0.015708,0.015708,-0.148353
32.68,0.038397,0.034034,-0.146608
32.7,0.074176,-0.000873,-0.142244
32.72,0.063705,0.055851,-0.16057
32.74,0.010472,-0.004363,-0.18326
32.76,-0.013963,0.01309,-0.205949
32.78,-0.000873,0.053233,-0.220784
32.8,0.048869,0.03927,-0.233001
32.82,0.099484,0.014835,-0.239983
32.84,0.059341,-0.008727,-0.253073
32.86,0.027925,0.027053,-0.2522
32.88,-0.013963,0.024435,-0.234747
32.9,-0.027925,0.02618,-0.213803
32.92,0.034034,0.021817,-0.20944
32.94,0.09163,0.020071,-0.210312
32.96,0.116937,-0.029671,-0.202458
32.98,0.118682,0.051487,-0.18326
33,0.071558,0.024435,-0.166679
33.02,0.038397,0.015708,-0.159698
33.04,0.001745,-0.01309,-0.16057
33.06,-0.018326,-0.001745,-0.144862
33.08,0,0.015708,-0.149226
33.1,0.047997,-0.009599,-0.152716
33.12,0.075049,-0.024435,-0.146608
33.14,0.051487,0.000873,-0.167552
33.16,0.031416,-0.030543,-0.167552
33.18,0.011345,0.029671,-0.155334
33.2,0.004363,-0.002618,-0.148353
33.22,-0.006109,0.01309,-0.14399
33.24,-0.018326,-0.020944,-0.136136
33.26,0.003491,-0.034907,-0.111701
33.28,0.032289,-0.001745,-0.083776
33.3,0.030543,0.021817,-0.069813
33.32,-0.000873,-0.000873,-0.054105
33.34,-0.054105,-0.03927,-0.043633
33.36,-0.082903,0.024435,-0.034034
33.38,-0.034034,-0.015708,-0.018326
33.4,0.006981,0.025307,-0.006109
33.42,0.057596,0.040143,-0.024435
33.44,0.019199,0.004363,-0.028798
33.46,0.003491,0.023562,-0.027925
33.48,-0.057596,0.074176,-0.033161
33.5,-0.093375,0.029671,-0.047997
33.52,-0.07854,0.046251,-0.055851
33.54,-0.054978,-0.042761,-0.062832
33.56,-0.001745,0.041888,-0.080285
33.58,0.087266,0.057596,-0.106465
33.6,0.10472,0.049742,-0.110828
33.62,0.102102,0.03927,-0.122173
33.64,0.016581,0.025307,-0.116937
33.66,-0.048869,0.019199,-0.097738
33.68,-0.081158,0.061959,-0.075922
33.7,-0.086394,0.024435,-0.054978
33.72,-0.063705,0.057596,-0.044506
33.74,-0.05236,0.009599,-0.043633
33.76,-0.087266,0.038397,-0.034907
33.78,-0.086394,0.027925,-0.034034
33.8,-0.116064,0.046251,-0.020071
33.82,-0.106465,0.047124,-0.028798
33.84,-0.098611,-0.014835,-0.002618
33.86,-0.06545,0.014835,0.003491
33.88,-0.007854,0.008727,0.031416
33.9,0.077667,0.020944,0.051487
33.92,0.066323,-0.010472,0.061087
33.94,0.034034,0.006981,0.060214
33.96,-0.047124,-0.048869,0.061087
33.98,-0.061087,0.027925,0.062832
34,-0.049742,-0.025307,0.082903
34.02,0.001745,0.02618,0.096866
34.04,0.025307,-0.070686,0.103847
34.06,-0.012217,-0.009599,0.095993
34.08,-0.046251,-0.047997,0.103847
34.1,-0.081158,-0.002618,0.122173
34.12,-0.050615,-0.012217,0.137881
34.14,-0.013963,-0.046251,0.151844
34.16,0.007854,-0.019199,0.150098
34.18,0.000873,-0.047997,0.162316
34.2,-0.02618,-0.014835,0.185005
34.22,-0.027925,-0.027053,0.19635
34.24,-0.028798,0.002618,0.205076
34.26,-0.070686,-0.014835,0.20944
34.28,-0.106465,0,0.208567
34.3,-0.089884,-0.038397,0.219039
34.32,-0.027925,0.034907,0.236492
34.34,0.068941,-0.044506,0.239983
34.36,0.106465,0.019199,0.240855
34.38,0.028798,-0.028798,0.226893
34.4,-0.058469,-0.047997,0.230383
34.42,-0.125664,0.067195,0.218166
34.44,-0.157952,-0.084648,0.220784
34.46,-0.102974,0.001745,0.218166
34.48,-0.041015,-0.000873,0.208567
34.5,-0.033161,-0.042761,0.221657
34.52,-0.027053,-0.004363,0.240855
34.54,-0.027925,0.054105,0.259181
34.56,-0.004363,-0.020944,0.266163
34.58,-0.004363,0.062832,0.256563
34.6,-0.071559,0.032289,0.237365
34.62,-0.130027,-0.029671,0.222529
34.64,-0.13439,0.133518,0.216421
34.66,-0.098611,0.002618,0.202458
34.68,0.018326,0.05236,0.198095
34.7,0.102974,0.054978,0.169297
34.72,0.048869,-0.006981,0.146608
34.74,-0.022689,0.061087,0.145735
34.76,-0.101229,0.064577,0.164061
34.78,-0.128282,0.05236,0.181514
34.8,-0.088139,0.055851,0.191986
34.82,-0.006109,0.09512,0.191114
34.84,-0.011345,0.008727,0.185878
34.86,-0.031416,0.127409,0.17017
34.88,-0.069813,0.09163,0.172788
34.9,-0.088139,0.055851,0.174533
34.92,-0.059341,0.14399,0.144862
34.94,-0.030543,-0.009599,0.133518
34.96,-0.029671,0.11781,0.10821
34.98,-0.042761,0.050615,0.089012
35,-0.058469,0.097738,0.096866
35.02,-0.029671,0.128282,0.089012
35.04,-0.003491,-0.006109,0.10821
35.06,0.016581,0.118682,0.107338
35.08,-0.06545,-0.004363,0.102102
35.1,-0.137881,0.070686,0.123046
35.12,-0.17366,0.119555,0.11781
35.14,-0.15708,-0.013963,0.141372
35.16,-0.063705,0.149226,0.14399
35.18,0.168424,0.074176,0.158825
35.2,0.285361,0.13439,0.189368
35.22,0.392699,0.149226,0.177151
35.24,0.216421,-0.075049,0.177151
35.26,-0.056723,0.171042,0.144862
35.28,-0.376118,0.206822,0.144862
35.3,-0.585558,0.023562,0.202458
35.32,-0.494801,0.053233,0.19635
35.34,-0.194604,-0.114319,0.228638
35.36,0.220784,0.045379,0.261799
35.38,0.355175,0.064577,0.262672
35.4,0.234747,-0.122173,0.287107
35.42,-0.023562,0.046251,0.279253
35.44,-0.320268,-0.057596,0.270526
35.46,-0.472112,-0.119555,0.287979
35.48,-0.41277,0.047124,0.275762
35.5,-0.137008,-0.145735,0.322886
35.52,0.184132,-0.047124,0.350811
35.54,0.307178,-0.020944,0.355174
35.56,0.167552,-0.215548,0.358665
35.58,-0.070686,-0.022689,0.347321
35.6,-0.353429,-0.056723,0.351684
35.62,-0.442441,-0.177151,0.402298
35.64,-0.3735,0.005236,0.41277
35.66,-0.054105,-0.164934,0.449422
35.68,0.181514,-0.21293,0.479093
35.7,0.19984,-0.143117,0.472984
35.72,0.027053,-0.331613,0.468621
35.74,-0.18675,-0.17017,0.457276
35.76,-0.313287,0.094248,0.450295
35.78,-0.37001,-0.060214,0.456404
35.8,-0.222529,-0.261799,0.493928
35.82,0.005236,-0.028798,0.494801
35.84,0.106465,-0.070686,0.502655
35.86,0.030543,-0.190241,0.510509
35.88,-0.051487,0.002618,0.523599
35.9,-0.185878,-0.057596,0.546288
35.92,-0.294088,-0.020944,0.56985
35.94,-0.269653,-0.07854,0.593412
35.96,-0.206822,-0.042761,0.616101
35.98,-0.10472,-0.100356,0.637918
36,-0.021817,-0.046251,0.65188
36.02,-0.011345,-0.031416,0.658862
36.04,-0.089012,-0.088139,0.657116
36.06,-0.188496,-0.002618,0.638791
36.08,-0.280998,-0.123046,0.637045
36.1,-0.281871,-0.002618,0.630937
36.12,-0.178896,-0.067195,0.637045
36.14,0.002618,-0.047124,0.644026
36.16,0.105592,-0.02618,0.633555
36.18,0.020944,-0.144862,0.623955
36.2,-0.1213,-0.005236,0.611738
36.22,-0.222529,-0.084648,0.628319
36.24,-0.298451,0.005236,0.643154
36.26,-0.212058,-0.068068,0.668461
36.28,-0.053233,-0.056723,0.682424
36.3,0.027925,-0.057596,0.683296
36.32,-0.025307,-0.092502,0.69115
36.34,-0.09512,0.023562,0.705113
36.36,-0.191114,-0.038397,0.715585
36.38,-0.229511,-0.025307,0.721694
36.4,-0.200713,-0.047997,0.719948
36.42,-0.137881,-0.021817,0.714712
36.44,-0.076794,-0.01309,0.718203
36.46,-0.034907,0.054105,0.71733
36.48,-0.055851,-0.047124,0.699004
36.5,-0.100356,0.005236,0.675442
36.52,-0.190241,-0.044506,0.64839
36.54,-0.20944,-0.004363,0.617847
36.56,-0.192859,0.041888,0.608247
36.58,-0.116064,-0.001745,0.598648
36.6,-0.041888,-0.012217,0.588176
36.62,-0.025307,-0.043633,0.572468
36.64,-0.047997,-0.014835,0.561996
36.66,-0.09163,0.020071,0.567232
36.68,-0.138754,0.013963,0.548906
36.7,-0.130027,-0.021817,0.544543
36.72,-0.133518,-0.006109,0.53058
36.74,-0.102102,-0.041888,0.541052
36.76,-0.062832,0.042761,0.546288
36.78,-0.051487,-0.003491,0.541052
36.8,-0.083776,-0.013963,0.519235
36.82,-0.158825,-0.028798,0.507018
36.84,-0.18326,-0.018326,0.505273
36.86,-0.150971,0.019199,0.511381
36.88,-0.079412,0.041015,0.500037
36.9,-0.009599,-0.015708,0.479966
36.92,-0.011345,-0.003491,0.469494
36.94,-0.053233,0.002618,0.450295
36.96,-0.09163,0.036652,0.449422
36.98,-0.110828,0.019199,0.443314
37,-0.11781,0.003491,0.436332
37.02,-0.115192,-0.034907,0.427606
37.04,-0.07854,0.01309,0.423242
37.06,-0.025307,0.006109,0.419752
37.08,0.031416,-0.019199,0.404916
37.1,-0.007854,-0.022689,0.378736
37.12,-0.051487,-0.030543,0.347321
37.14,-0.086394,0.014835,0.348193
37.16,-0.113446,0.014835,0.345575
37.18,-0.089884,-0.006109,0.340339
37.2,-0.075049,-0.037525,0.322886
37.22,-0.050615,-0.001745,0.326377
37.24,-0.030543,-0.006109,0.324631
37.26,-0.01309,0.006109,0.325504
37.28,-0.016581,-0.016581,0.311541
37.3,-0.068068,-0.02618,0.309796
37.32,-0.076794,0.006981,0.311541
37.34,-0.083776,0.027053,0.322886
37.36,-0.03927,-0.012217,0.325504
37.38,-0.028798,-0.010472,0.315905
37.4,-0.025307,0.014835,0.316777
37.42,-0.048869,0.029671,0.316777
37.44,-0.054978,0.054105,0.314159
37.46,-0.068941,-0.006981,0.302815
37.48,-0.057596,0.003491,0.306305
37.5,-0.05236,0.064577,0.297579
37.52,-0.066323,0.019199,0.298451
37.54,-0.064577,0.027925,0.294088
37.56,-0.086394,0.001745,0.280998
37.58,-0.087266,0.014835,0.277507
37.6,-0.069813,0.057596,0.274889
37.62,-0.037525,-0.005236,0.264417
37.64,-0.013963,-0.01309,0.253945
37.66,-0.029671,0.029671,0.255691
37.68,-0.044506,0.020944,0.2522
37.7,-0.086394,0.01309,0.242601
37.72,-0.116937,-0.040143,0.228638
37.74,-0.116937,-0.049742,0.218166
37.76,-0.09163,0.046251,0.227765
37.78,-0.047997,-0.01309,0.226893
37.8,-0.013963,-0.054978,0.216421
37.82,-0.017453,-0.003491,0.220784
37.84,-0.057596,-0.000873,0.227765
37.86,-0.09512,0.008727,0.236492
37.88,-0.115192,-0.006981,0.236492
37.9,-0.099484,-0.034907,0.245219
37.92,-0.047997,0.051487,0.260054
37.94,-0.007854,0.012217,0.257436
37.96,0.002618,-0.059341,0.246091
37.98,-0.019199,0.02618,0.250455
38,-0.073304,0.030543,0.253073
38.02,-0.127409,-0.019199,0.250455
38.04,-0.136136,0.029671,0.244346
38.06,-0.093375,0.025307,0.249582
38.08,-0.01309,0.022689,0.251327
38.1,0.027053,0.021817,0.241728
38.12,0.055851,-0.025307,0.239983
38.14,-0.019199,0.033161,0.241728
38.16,-0.102974,0.029671,0.233874
38.18,-0.154462,-0.041015,0.225147
38.2,-0.1309,0.02618,0.229511
38.22,-0.105592,0.008727,0.236492
38.24,-0.025307,-0.020071,0.228638
38.26,-0.004363,0.017453,0.219039
38.28,-0.018326,-0.016581,0.216421
38.3,-0.083776,-0.010472,0.20944
38.32,-0.123046,-0.005236,0.205076
38.34,-0.079412,-0.064577,0.19984
38.36,-0.051487,0.016581,0.204204
38.38,-0.03927,-0.001745,0.197222
38.4,-0.03927,-0.020944,0.182387
38.42,-0.070686,0.008727,0.19984
38.44,-0.153589,-0.041888,0.201586
38.46,-0.162316,-0.012217,0.195477
38.48,-0.084648,-0.034034,0.201586
38.5,-0.011345,-0.028798,0.210312
38.52,0.046251,0.016581,0.214676
38.54,0.044506,-0.040143,0.204204
38.56,0.006109,-0.002618,0.195477
38.58,-0.079412,0.041015,0.202458
38.6,-0.116064,-0.020071,0.188496
38.62,-0.085521,-0.020071,0.181514
38.64,-0.034034,-0.022689,0.174533
38.66,0.005236,-0.023562,0.154462
38.68,0.019199,-0.001745,0.135263
38.7,-0.010472,-0.025307,0.129154
38.72,-0.068941,0.020071,0.120428
38.74,-0.09163,0.006981,0.106465
38.76,-0.044506,-0.02618,0.105592
38.78,-0.002618,0.03927,0.10472
38.8,0.019199,-0.028798,0.097738
38.82,0.03927,-0.022689,0.077667
38.84,0.016581,0.016581,0.080285
38.86,-0.035779,0.002618,0.082903
38.88,-0.068941,0.006981,0.075049
38.9,-0.033161,0,0.068941
38.92,-0.056723,0.041888,0.07854
38.94,-0.047124,0.024435,0.066323
38.96,-0.029671,-0.018326,0.066323
38.98,-0.02618,0.027925,0.073304
39,-0.038397,-0.017453,0.068068
39.02,-0.038397,-0.008727,0.063705
39.04,-0.008727,0.021817,0.06545
39.06,-0.005236,-0.032289,0.068068
39.08,-0.012217,0.019199,0.061959
39.1,0.002618,0.011345,0.06545
39.12,-0.046251,-0.027925,0.067195
39.14,-0.098611,0.023562,0.059341
39.16,-0.10472,-0.073304,0.05236
39.18,-0.085521,-0.040143,0.060214
39.2,-0.072431,0.017453,0.058469
39.22,-0.041888,-0.067195,0.056723
39.24,0.004363,0.01309,0.06545
39.26,0.004363,-0.003491,0.070686
39.28,-0.041888,-0.053233,0.063705
39.3,-0.01309,-0.003491,0.061959
39.32,-0.017453,-0.073304,0.064577
39.34,0,-0.000873,0.073304
39.36,-0.002618,0.053233,0.054978
39.38,-0.021817,0.059341,0.054978
39.4,-0.099484,0.079412,0.05236
39.42,-0.136136,-0.012217,0.048869
39.44,-0.070686,-0.01309,0.054978
39.46,0.000873,0.032289,0.06545
39.48,0.05236,-0.034907,0.054978
39.5,0.102974,0,0.051487
39.52,0.034034,0.020944,0.056723
39.54,-0.047997,0.012217,0.053233
39.56,-0.102974,0.054978,0.037525
39.58,-0.112574,0.021817,0.050615
39.6,-0.107338,-0.143117,0.057596
39.62,-0.048869,-0.06545,0.048869
39.64,0.010472,0.025307,0.047124
39.66,0.007854,-0.080285,0.044506
39.68,-0.034034,0.028798,0.030543
39.7,-0.038397,-0.015708,0.034034
39.72,-0.088139,-0.030543,0.032289
39.74,-0.09163,0.085521,0.036652
39.76,-0.064577,-0.067195,0.033161
39.78,-0.003491,0.025307,0.040143
39.8,0.024435,0.074176,0.049742
39.82,0.004363,-0.06545,0.030543
39.84,0.023562,0.072431,0.034907
39.86,-0.019199,0.049742,0.043633
39.88,-0.042761,-0.044506,0.040143
39.9,-0.008727,0.094248,0.037525
39.92,-0.006981,-0.015708,0.047124
39.94,0.001745,0.000873,0.047124
39.96,-0.005236,0.048869,0.050615
39.98,-0.01309,-0.047124,0.047997
40,-0.041888,0.027925,0.048869
40.02,-0.071558,-0.022689,0.041888
40.04,-0.037525,-0.032289,0.047124
40.06,-0.033161,0.059341,0.058469
40.08,-0.014835,-0.036652,0.054105
40.1,0.005236,-0.012217,0.048869
40.12,-0.016581,0.038397,0.055851
40.14,-0.053233,-0.028798,0.055851
40.16,-0.076794,0.014835,0.047997
40.18,-0.067195,0.009599,0.058469
40.2,-0.056723,0.003491,0.069813
40.22,-0.038397,0.028798,0.059341
40.24,-0.018326,-0.011345,0.054105
40.26,-0.035779,0.024435,0.054978
40.28,-0.061959,-0.008727,0.049742
40.3,-0.058469,-0.037525,0.042761
40.32,-0.075922,0.006109,0.03927
40.34,-0.059341,-0.034907,0.040143
40.36,-0.020071,0.057596,0.041015
40.38,0.010472,-0.038397,0.05236
40.4,0.030543,0.05236,0.064577
40.42,0.003491,0.001745,0.062832
40.44,0,-0.067195,0.054978
40.46,-0.034907,0.075049,0.055851
40.48,-0.050615,-0.033161,0.049742
40.5,-0.056723,-0.019199,0.041888
40.52,-0.020944,0.066323,0.040143
40.54,-0.034907,-0.010472,0.037525
40.56,-0.034034,0.044506,0.027053
40.58,-0.034034,0.033161,0.022689
40.6,-0.075922,-0.005236,0.030543
40.62,-0.090757,0.041015,0.027053
40.64,-0.096866,-0.027053,0.027053
40.66,-0.056723,-0.000873,0.027925
40.68,-0.023562,0.046251,0.034907
40.7,0.012217,-0.076794,0.030543
40.72,0.021817,-0.007854,0.020944
40.74,-0.070686,-0.006981,0.02618
40.76,0.032289,-0.068941,0.032289
40.78,-0.027053,0.047997,0.03927
40.8,0.053233,0.031416,0.021817
40.82,0.041888,0.015708,0.006109
40.84,-0.03927,0.023562,0.004363
40.86,-0.080285,-0.041888,0.008727
40.88,-0.138754,0.031416,0.001745
40.9,-0.100356,0.02618,0.000873
40.92,-0.035779,-0.035779,0.000873
40.94,0.054105,0.022689,0.006981
40.96,0.088139,0.015708,0.005236
40.98,0.064577,-0.008727,-0.006109
41,-0.003491,0.020071,-0.018326
41.02,-0.071559,0.029671,-0.009599
41.04,-0.118682,0.007854,-0.010472
41.06,-0.084648,-0.116064,-0.011345
41.08,-0.004363,-0.024435,-0.005236
41.1,0.050615,0.010472,-0.006109
41.12,0.035779,-0.042761,-0.011345
41.14,-0.013963,-0.007854,-0.018326
41.16,-0.087266,-0.030543,-0.023562
41.18,-0.143117,0.010472,-0.019199
41.2,-0.103847,-0.013963,-0.018326
41.22,-0.024435,-0.064577,-0.016581
41.24,0.060214,0.017453,-0.006981
41.26,0.109956,-0.013963,-0.006109
41.28,0.068068,-0.01309,-0.015708
41.3,0.006109,-0.009599,-0.017453
41.32,-0.074176,-0.004363,-0.018326
41.34,-0.088139,0.034034,-0.012217
41.36,-0.071559,-0.020944,-0.014835
41.38,0.029671,-0.046251,-0.010472
41.4,0.089012,0.024435,-0.004363
41.42,0.102102,-0.006981,-0.012217
41.44,0.060214,-0.019199,-0.020944
41.46,0.013963,0.006981,-0.032289
41.48,-0.047997,0.011345,-0.029671
41.5,-0.05236,0.017453,-0.034034
41.52,-0.034034,-0.020944,-0.027053
41.54,0.029671,0.007854,-0.027053
41.56,0.080285,0.005236,-0.024435
41.58,0.077667,0.028798,-0.027925
41.6,0.031416,-0.020071,-0.037525
41.62,-0.001745,-0.007854,-0.046251
41.64,-0.043633,0.041015,-0.038397
41.66,-0.004363,0.009599,-0.029671
41.68,0.02618,-0.015708,-0.034907
41.7,0.068068,-0.024435,-0.043633
41.72,0.060214,0.025307,-0.044506
41.74,0.019199,0.017453,-0.044506
41.76,-0.016581,-0.012217,-0.055851
41.78,-0.059341,-0.006109,-0.068941
41.8,-0.06545,0.011345,-0.069813
41.82,-0.027925,0.044506,-0.068941
41.84,0.014835,-0.029671,-0.069813
41.86,0.037525,-0.021817,-0.075922
41.88,0.034034,0.01309,-0.075922
41.9,-0.003491,0,-0.08203
41.92,-0.030543,0.024435,-0.08203
41.94,-0.062832,-0.033161,-0.088139
41.96,-0.054978,-0.041888,-0.094248
41.98,-0.046251,0.030543,-0.089884
42,-0.008727,-0.001745,-0.089884
42.02,0.016581,-0.016581,-0.095993
42.04,0.001745,-0.057596,-0.099484
42.06,-0.008727,0.001745,-0.099484
42.08,-0.029671,0.012217,-0.102974
42.1,-0.036652,-0.032289,-0.106465
42.12,-0.035779,-0.015708,-0.10821
42.14,-0.032289,-0.023562,-0.116064
42.16,-0.010472,0.020071,-0.114319
42.18,0.018326,0.01309,-0.106465
42.2,0.040143,-0.010472,-0.105592
42.22,0.007854,-0.027053,-0.124791
42.24,-0.010472,0.008727,-0.129154
42.26,-0.031416,0.034034,-0.128282
42.28,-0.017453,0.025307,-0.135263
42.3,-0.010472,-0.022689,-0.144862
42.32,0.001745,-0.015708,-0.148353
42.34,-0.006981,0.024435,-0.150971
42.36,0.009599,0.024435,-0.150098
42.38,0.027053,0.054105,-0.15708
42.4,0.020944,-0.042761,-0.158825
42.42,-0.000873,0.017453,-0.159698
42.44,-0.008727,0.030543,-0.161443
42.46,-0.003491,0.016581,-0.166679
42.48,0.018326,0.022689,-0.171042
42.5,0.011345,-0.03927,-0.176278
42.52,-0.019199,-0.025307,-0.180642
42.54,-0.027925,0.083776,-0.187623
42.56,-0.025307,-0.011345,-0.18675
42.58,0.009599,0.042761,-0.192859
42.6,0.008727,-0.033161,-0.19984
42.62,0.002618,-0.038397,-0.208567
42.64,0.014835,0.046251,-0.205076
42.66,0.027053,0.002618,-0.210312
42.68,0.056723,-0.025307,-0.222529
42.7,0.054105,0.013963,-0.234747
42.72,0.018326,-0.054105,-0.247837
42.74,-0.008727,0.056723,-0.249582
42.76,-0.004363,0.007854,-0.246964
42.78,0.022689,-0.003491,-0.248709
42.8,0.061959,-0.016581,-0.256563
42.82,0.034907,-0.006109,-0.272271
42.84,0.008727,-0.016581,-0.286234
42.86,-0.009599,0.045379,-0.287979
42.88,-0.007854,-0.033161,-0.293215
42.9,0.015708,0.002618,-0.302815
42.92,0.014835,-0.028798,-0.325504
42.94,-0.028798,0.008727,-0.335976
42.96,-0.017453,0.011345,-0.338594
42.98,0.003491,0.027053,-0.342085
43,0.047997,-0.012217,-0.349939
43.02,0.056723,-0.025307,-0.362156
43.04,0.027053,0.006109,-0.382227
43.06,-0.031416,-0.032289,-0.393572
43.08,-0.020071,0.05236,-0.400553
43.1,0.013963,-0.013963,-0.403171
43.12,0.113446,0.008727,-0.405789
43.14,0.1309,-0.034034,-0.42237
43.16,0.072431,-0.006981,-0.440696
43.18,-0.002618,-0.003491,-0.445932
43.2,-0.040143,0.025307,-0.447677
43.22,-0.006981,-0.021817,-0.45204
43.24,0.086394,0.001745,-0.447677
43.26,0.16057,0.003491,-0.456404
43.28,0.107338,-0.047124,-0.476475
43.3,0.047124,0.047997,-0.492183
43.32,-0.018326,-0.038397,-0.50091
43.34,-0.001745,0.041015,-0.502655
43.36,0.077667,-0.003491,-0.508763
43.38,0.14748,-0.035779,-0.512254
43.4,0.146608,0.040143,-0.525344
43.42,0.063705,-0.053233,-0.541925
43.44,0,0.033161,-0.540179
43.46,-0.020944,-0.009599,-0.541925
43.48,0.029671,0.004363,-0.520981
43.5,0.119555,0.028798,-0.529707
43.52,0.124791,-0.053233,-0.539307
43.54,0.08203,0.037525,-0.550651
43.56,-0.003491,-0.075049,-0.562869
43.58,-0.006981,0.036652,-0.575086
43.6,0.042761,-0.009599,-0.589921
43.62,0.141372,-0.043633,-0.59603
43.64,0.216421,0.061087,-0.616101
43.66,0.136136,-0.08203,-0.649262
43.68,0.092502,0.031416,-0.667588
43.7,-0.032289,-0.073304,-0.681551
43.72,-0.033161,-0.025307,-0.688532
43.74,0.012217,0.03927,-0.67806
43.76,0.050615,-0.060214,-0.683296
43.78,0.067195,0.099484,-0.699004
43.8,0.003491,-0.001745,-0.716458
43.82,-0.181514,-0.053233,-0.732166
43.84,-0.152716,0.046251,-0.74002
43.86,-0.191986,-0.046251,-0.729548
43.88,-0.028798,0.056723,-0.721694
43.9,0.202458,0.050615,-0.723439
43.92,0.361283,0.001745,-0.715585
43.94,0.348193,0.068068,-0.73042
43.96,0.211185,-0.064577,-0.74002
43.98,0.040143,0.037525,-0.748746
44,-0.08203,0.004363,-0.754855
44.02,-0.096866,-0.042761,-0.741765
44.04,0.067195,0.07854,-0.740892
44.06,0.288852,-0.034907,-0.733911
44.08,0.415388,0.049742,-0.73042
44.1,0.349939,0.024435,-0.759218
44.12,0.159698,-0.069813,-0.768818
44.14,-0.028798,0.085521,-0.785398
44.16,-0.158825,-0.071559,-0.804597
44.18,-0.130027,-0.138754,-0.793252
44.2,0.09512,0.098611,-0.815941
44.22,0.350811,0.185005,-0.834267
44.24,0.377864,-0.20944,-0.847357
44.26,0.240855,-0.138754,-0.870919
44.28,0.019199,0.11781,-0.897972
44.3,-0.176278,-0.019199,-0.904953
44.32,-0.248709,-0.14748,-0.870047
44.34,-0.090757,0.006109,-0.855211
44.36,0.168424,-0.042761,-0.829031
44.38,0.339467,-0.028798,-0.801979
44.4,0.310669,-0.008727,-0.79587
44.42,0.181514,-0.024435,-0.793252
44.44,0.004363,-0.035779,-0.794997
44.46,-0.073304,-0.006981,-0.780162
44.48,-0.043633,-0.059341,-0.78278
44.5,0.135263,0.051487,-0.791507
44.52,0.314159,0.003491,-0.811578
44.54,0.315032,-0.008727,-0.828159
44.56,0.211185,-0.003491,-0.849103
44.58,0.075922,0.010472,-0.859575
44.6,0.011345,0.048869,-0.864811
44.62,-0.036652,0.03927,-0.863065
44.64,0.012217,0.041015,-0.859575
44.66,0.097738,0.010472,-0.862193
44.68,0.148353,0.018326,-0.868301
44.7,0.178024,-0.009599,-0.8875
44.72,0.202458,0.057596,-0.894481
44.74,0.202458,0.034034,-0.895354
44.76,0.193732,0.049742,-0.90059
44.78,0.1309,0.047997,-0.906699
44.8,0.05236,0.021817,-0.917171
44.82,-0.007854,0.047997,-0.925897
44.84,0.006981,0.191986,-0.958186
44.86,0.066323,0.068068,-0.966912
44.88,0.17366,0.054978,-0.949459
44.9,0.198968,0.074176,-0.93986
44.92,0.1309,0.035779,-0.932006
44.94,0.064577,0.046251,-0.923279
44.96,0.01309,0.062832,-0.912807
44.98,0.043633,0.015708,-0.899717
45,0.118682,0.037525,-0.897099
45.02,0.138754,0.02618,-0.896227
45.04,0.126536,-0.007854,-0.892736
45.06,0.094248,0,-0.901463
45.08,0.10472,0.014835,-0.902335
45.1,0.118682,0.018326,-0.895354
45.12,0.159698,0.016581,-0.902335
45.14,0.148353,-0.044506,-0.904081
45.16,0.11781,-0.061959,-0.909317
45.18,0.120428,-0.02618,-0.908444
45.2,0.127409,-0.055851,-0.902335
45.22,0.145735,-0.054978,-0.897099
45.24,0.165806,-0.033161,-0.90059
45.26,0.133518,-0.076794,-0.894481
45.28,0.096866,-0.047997,-0.901463
45.3,0.05236,-0.062832,-0.898845
45.32,0.063705,-0.029671,-0.893609
45.34,0.105592,-0.047997,-0.879646
45.36,0.151844,-0.050615,-0.869174
45.38,0.155334,-0.074176,-0.863065
45.4,0.105592,-0.023562,-0.877901
45.42,0.040143,-0.058469,-0.884009
45.44,0.028798,-0.019199,-0.869174
45.46,0.070686,-0.011345,-0.866556
45.48,0.15708,-0.003491,-0.849103
45.5,0.191114,-0.022689,-0.842121
45.52,0.127409,0.016581,-0.846485
45.54,0.076794,-0.010472,-0.844739
45.56,0.019199,-0.006981,-0.840376
45.58,0.040143,0.029671,-0.849975
45.6,0.13439,-0.018326,-0.834267
45.62,0.204204,0.02618,-0.836013
45.64,0.197222,-0.017453,-0.842121
45.66,0.112574,0.029671,-0.841249
45.68,0.038397,-0.034034,-0.833395
45.7,-0.000873,0,-0.818559
45.72,0.047124,-0.001745,-0.822923
45.74,0.119555,-0.016581,-0.801979
45.76,0.176278,0.022689,-0.799361
45.78,0.127409,-0.042761,-0.788889
45.8,0.067195,0.019199,-0.794998
45.82,-0.006981,-0.047124,-0.79587
45.84,-0.012217,-0.006109,-0.78278
45.86,0.058469,0.000873,-0.780162
45.88,0.14399,-0.035779,-0.755728
45.9,0.187623,0.040143,-0.762709
45.92,0.144862,-0.049742,-0.758346
45.94,0.075049,-0.012217,-0.762709
45.96,-0.009599,0.013963,-0.774926
45.98,-0.069813,-0.063705,-0.759218
46,-0.028798,0.044506,-0.750492
46.02,0.068068,-0.005236,-0.736529
46.04,0.158825,-0.009599,-0.722566
46.06,0.202458,0.054978,-0.740892
46.08,0.133518,-0.05236,-0.74002
46.1,0.037525,-0.005236,-0.729548
46.12,-0.062832,0.043633,-0.731293
46.14,-0.137008,-0.050615,-0.712967
46.16,-0.072431,0.043633,-0.705986
46.18,0.044506,0.020944,-0.690278
46.2,0.164934,-0.054978,-0.66148
46.22,0.232129,0.061087,-0.668461
46.24,0.262672,-0.010472,-0.676315
46.26,0.019199,0.003491,-0.663225
46.28,-0.014835,0.029671,-0.644027
46.3,-0.097738,-0.027053,-0.633555
46.32,-0.150971,-0.029671,-0.599521
46.34,-0.056723,0.110828,-0.589049
46.36,0.079412,0.013963,-0.581195
46.38,0.198968,-0.023562,-0.568105
46.4,0.226893,0.05236,-0.585558
46.42,0.128282,-0.033161,-0.587303
46.44,0.009599,0.017453,-0.586431
46.46,-0.064577,0.059341,-0.590794
46.48,-0.09163,-0.011345,-0.56985
46.5,-0.017453,-0.02618,-0.536689
46.52,0.089884,0.025307,-0.512254
46.54,0.182387,0.045379,-0.499164
46.56,0.193732,-0.041015,-0.493928
46.58,0.150971,0.038397,-0.501782
46.6,0.036652,0.01309,-0.507891
46.62,-0.040143,-0.01309,-0.499164
46.64,-0.077667,-0.030543,-0.47473
46.66,-0.046251,-0.001745,-0.451168
46.68,0.05236,-0.003491,-0.430224
46.7,0.126536,-0.064577,-0.408407
46.72,0.198968,0.032289,-0.395317
46.74,0.236492,0.051487,-0.392699
46.76,0.135263,-0.009599,-0.38659
46.78,0.106465,0.018326,-0.3735
46.8,-0.040143,0.082903,-0.346448
46.82,-0.047124,0.040143,-0.336849
46.84,-0.128282,-0.103847,-0.320268
46.86,-0.131772,-0.03927,-0.328122
46.88,-0.098611,0.058469,-0.305433
46.9,0.005236,-0.010472,-0.279253
46.92,0.145735,-0.028798,-0.261799
46.94,0.235619,0.043633,-0.277507
46.96,0.200713,-0.054105,-0.303687
46.98,0.082903,0.050615,-0.323759
47,-0.020944,-0.054978,-0.351684
47.02,-0.123046,-0.137881,-0.357792
47.04,-0.090757,0.089884,-0.380482
47.06,0.000873,0.064577,-0.383972
47.08,0.10821,-0.125664,-0.368264
47.1,0.159698,0.029671,-0.363901
47.12,0.1213,0.027053,-0.378736
47.14,0.035779,-0.060214,-0.377864
47.16,-0.010472,0.050615,-0.372628
47.18,-0.020944,-0.013963,-0.344703
47.2,0.040143,0.002618,-0.305433
47.22,0.09163,0.020944,-0.290597
47.24,0.101229,-0.050615,-0.288852
47.26,0.066323,0.015708,-0.283616
47.28,0.004363,-0.006109,-0.277507
47.3,-0.05236,-0.017453,-0.266163
47.32,-0.07854,-0.034907,-0.263545
47.34,-0.043633,-0.002618,-0.256563
47.36,0.009599,0.01309,-0.246964
47.38,0.058469,0.014835,-0.235619
47.4,0.088139,-0.016581,-0.230383
47.42,0.07854,0.004363,-0.22602
47.44,0.063705,0.032289,-0.22602
47.46,-0.003491,-0.063705,-0.219039
47.48,-0.038397,0.022689,-0.219039
47.5,-0.047997,0.014835,-0.206822
47.52,-0.037525,-0.012217,-0.187623
47.54,0,0.017453,-0.18675
47.56,0.013963,-0.164061,-0.179769
47.58,-0.006981,-0.089884,-0.174533
47.6,-0.006109,0.120428,-0.180642
47.62,-0.006981,0.164061,-0.178896
47.64,0.014835,-0.136136,-0.180642
47.66,0.073304,0.003491,-0.191114
47.68,0.075049,0.102102,-0.201586
47.7,0.032289,-0.076794,-0.195477
47.72,-0.008727,0.016581,-0.172788
47.74,-0.050615,0.005236,-0.157952
47.76,-0.063705,-0.075049,-0.123918
47.78,-0.045379,0.028798,-0.111701
47.8,-0.034034,-0.020944,-0.107338
47.82,-0.024435,-0.006981,-0.090757
47.84,0.003491,0.041015,-0.080285
47.86,0.022689,-0.03927,-0.061959
47.88,0.061959,0.031416,-0.05236
47.9,0.064577,0.020071,-0.045379
47.92,0.027053,-0.006981,-0.044506
47.94,-0.010472,0.002618,-0.038397
47.96,-0.056723,-0.03927,-0.024435
47.98,-0.068068,0.019199,-0.018326
48,-0.041015,0.028798,-0.018326
48.02,-0.017453,-0.036652,-0.006109
48.04,0.006109,-0.027053,0
48.06,-0.01309,0.007854,0.005236
48.08,-0.012217,0.004363,0.000873
48.1,-0.016581,0.044506,0.002618
48.12,0.004363,-0.012217,0.001745
48.14,0.038397,0.001745,-0.005236
48.16,0.060214,-0.003491,-0.016581
48.18,0.06545,0.012217,-0.015708
48.2,0.017453,0.002618,-0.007854
48.22,-0.028798,-0.000873,-0.012217
48.24,-0.072431,-0.015708,-0.007854
48.26,-0.075049,-0.020944,-0.003491
48.28,-0.040143,0.015708,0
48.3,0.004363,-0.005236,0.009599
48.32,0.009599,-0.002618,0.008727
48.34,-0.020071,0.032289,0.005236
48.36,-0.057596,-0.019199,-0.001745
48.38,-0.072431,-0.004363,-0.006981
48.4,-0.049742,0.019199,-0.003491
48.42,0,-0.012217,0
48.44,0.048869,0.02618,0
48.46,0.05236,-0.024435,-0.009599
48.48,0.03927,0.033161,-0.006109
48.5,-0.000873,0.024435,-0.013963
48.52,-0.049742,-0.061959,-0.011345
48.54,-0.079412,0.038397,-0.006981
48.56,-0.076794,-0.012217,0.006981
48.58,-0.043633,-0.020944,0.020071
48.6,0.003491,0.022689,0.015708
48.62,0.011345,-0.018326,0.008727
48.64,-0.005236,0.029671,-0.005236
48.66,-0.060214,-0.020944,-0.007854
48.68,-0.089884,-0.020944,-0.012217
48.7,-0.09512,0.017453,-0.012217
48.72,-0.071558,-0.020944,-0.011345
48.74,-0.035779,-0.006109,0
48.76,-0.015708,0.020071,0.011345
48.78,-0.006981,-0.034034,0.005236
48.8,-0.014835,0.006109,0
48.82,-0.027925,0.010472,-0.005236
48.84,-0.025307,-0.008727,-0.001745
48.86,-0.001745,0.012217,-0.001745
48.88,0.019199,-0.012217,-0.009599
48.9,0.014835,0,-0.010472
48.92,-0.012217,-0.004363,-0.004363
48.94,-0.030543,-0.023562,-0.002618
48.96,-0.038397,0.012217,-0.004363
48.98,-0.016581,-0.007854,-0.006981
49,0.001745,0.004363,-0.005236
49.02,0.014835,0.014835,-0.003491
49.04,-0.002618,-0.032289,-0.004363
49.06,-0.027925,0.02618,-0.006109
49.08,-0.054105,-0.013963,0.002618
49.1,-0.061959,-0.010472,0.013963
49.12,-0.046251,0.016581,0.011345
49.14,-0.035779,-0.017453,0.012217
49.16,-0.022689,0.006109,0.017453
49.18,-0.024435,-0.016581,0.005236
49.2,-0.033161,0.005236,-0.004363
49.22,-0.034034,0,-0.006109
49.24,-0.02618,-0.005236,-0.017453
49.26,-0.010472,-0.010472,-0.007854
49.28,0.000873,-0.006109,-0.004363
49.3,0.005236,0.010472,0.000873
49.32,-0.009599,-0.003491,0.009599
49.34,-0.028798,-0.017453,0.004363
49.36,-0.036652,0.002618,0.002618
49.38,-0.028798,-0.006109,0.005236
49.4,-0.028798,-0.002618,0.011345
49.42,-0.014835,0.003491,0.011345
49.44,-0.010472,-0.011345,0.004363
49.46,-0.021817,-0.002618,-0.007854
49.48,-0.031416,-0.001745,-0.004363
49.5,-0.033161,0.002618,-0.006109
49.52,-0.024435,0.000873,-0.000873
49.54,-0.017453,-0.001745,0.01309
49.56,-0.010472,-0.001745,0.012217
49.58,-0.015708,-0.003491,0.006109
49.6,-0.021817,-0.008727,-0.002618
49.62,-0.022689,-0.001745,-0.006109
49.64,-0.020944,-0.003491,-0.003491
49.66,-0.020944,0,0.005236
49.68,-0.016581,-0.001745,0.002618
49.7,-0.017453,-0.007854,0.000873
49.72,-0.022689,0.001745,-0.009599
49.74,-0.022689,-0.002618,-0.000873
49.76,-0.02618,-0.006981,0.006981
49.78,-0.030543,-0.002618,0.006981
49.8,-0.028798,0,-0.002618
49.82,-0.025307,-0.000873,-0.007854
49.84,-0.016581,0.002618,-0.006109
49.86,-0.017453,-0.001745,-0.006109
49.88,-0.023562,0.001745,-0.005236
49.9,-0.029671,0,0.001745
49.92,-0.016581,-0.001745,0
49.94,-0.022689,0,-0.005236
49.96,-0.016581,0,0
49.98,-0.010472,-0.001745,0.003491
50,-0.014835,0,0
50.02,-0.024435,-0.008727,-0.005236
50.04,-0.022689,-0.001745,-0.000873
50.06,-0.016581,-0.002618,0.001745
50.08,-0.020071,0.003491,0.001745
50.1,-0.020944,0.000873,0.003491
50.12,-0.017453,-0.001745,-0.005236
50.14,-0.018326,0,-0.002618
50.16,-0.020071,0.001745,0.004363
50.18,-0.011345,-0.006981,-0.002618
50.2,-0.007854,-0.003491,-0.008727
50.22,-0.013963,0,-0.001745
50.24,-0.015708,0.000873,-0.001745
50.26,-0.02618,-0.005236,-0.003491
50.28,-0.030543,-0.002618,-0.001745
50.3,-0.024435,-0.001745,-0.003491
50.32,-0.015708,-0.000873,-0.000873
50.34,-0.021817,-0.003491,-0.001745
50.36,-0.031416,-0.003491,0.001745
50.38,-0.032289,-0.001745,-0.001745
50.4,-0.030543,0.002618,-0.000873
50.42,-0.018326,-0.003491,0
50.44,-0.007854,0.001745,0.004363
50.46,-0.001745,0,0.000873
50.48,-0.006981,-0.001745,-0.004363
50.5,-0.02618,-0.003491,-0.003491
50.52,-0.041015,-0.000873,-0.000873
50.54,-0.037525,-0.001745,0.009599
50.56,-0.027053,-0.001745,0.004363
50.58,-0.014835,-0.006981,-0.000873
50.6,-0.006109,-0.006981,-0.006109
50.62,-0.010472,0.000873,-0.010472
50.64,-0.022689,-0.001745,0.000873
50.66,-0.029671,-0.002618,0.003491
50.68,-0.036652,-0.007854,0
50.7,-0.032289,-0.001745,0
50.72,-0.018326,-0.001745,0.000873
50.74,-0.006109,-0.000873,-0.000873
50.76,0.003491,-0.006981,-0.001745
50.78,-0.008727,0,-0.002618
50.8,-0.024435,-0.002618,-0.000873
50.82,-0.031416,-0.003491,-0.001745
50.84,-0.033161,-0.007854,0.000873
50.86,-0.025307,-0.005236,-0.005236
50.88,-0.015708,-0.002618,-0.006109
50.9,-0.008727,-0.004363,-0.004363
50.92,-0.006109,0,-0.004363
50.94,-0.020944,-0.002618,-0.001745
50.96,-0.036652,0.000873,0.002618
50.98,-0.037525,-0.006109,0.002618
51,-0.031416,-0.003491,-0.000873
51.02,-0.01309,0.000873,-0.008727
51.04,-0.002618,-0.004363,-0.004363
51.06,-0.002618,-0.003491,0.004363
51.08,-0.013963,-0.005236,0.000873
51.1,-0.024435,-0.003491,0.002618
51.12,-0.030543,0.001745,0.000873
51.14,-0.020944,0.001745,0.003491
51.16,-0.012217,-0.002618,-0.000873
51.18,-0.003491,-0.000873,-0.003491
51.2,-0.006109,-0.001745,-0.007854
51.22,-0.018326,-0.005236,0.001745
51.24,-0.027925,-0.000873,0.006981
51.26,-0.03927,0.000873,0.005236
51.28,-0.028798,-0.000873,0
51.3,-0.022689,-0.006981,-0.001745
51.32,-0.011345,-0.000873,0
51.34,-0.006109,-0.002618,0.002618
51.36,-0.008727,-0.000873,0.003491
51.38,-0.016581,-0.001745,0.006109
51.4,-0.023562,-0.002618,0.003491
51.42,-0.030543,-0.001745,0.000873
51.44,-0.030543,0.002618,0.003491
51.46,-0.022689,-0.003491,0.002618
51.48,-0.009599,-0.001745,-0.005236
51.5,-0.011345,-0.000873,-0.006981
51.52,-0.014835,-0.005236,-0.006981
51.54,-0.029671,-0.002618,0.003491
51.56,-0.031416,-0.001745,0.006109
51.58,-0.027925,-0.001745,0.004363
51.6,-0.022689,0.001745,-0.000873
51.62,-0.009599,0,-0.002618
51.64,-0.011345,-0.001745,-0.006981
51.66,-0.012217,-0.004363,0
51.68,-0.013963,0.001745,0.006981
51.7,-0.020944,-0.002618,0.002618
51.72,-0.021817,-0.003491,-0.003491
51.74,-0.018326,-0.003491,-0.002618
51.76,-0.022689,0,-0.005236
51.78,-0.020071,-0.000873,0.002618
51.8,-0.023562,-0.003491,0.002618
51.82,-0.027053,-0.006109,-0.000873
51.84,-0.030543,-0.003491,0.001745
51.86,-0.016581,0,-0.000873
51.88,0,-0.002618,-0.000873
51.9,-0.001745,-0.003491,-0.002618
51.92,-0.007854,-0.000873,-0.000873
51.94,-0.025307,0,0.003491
51.96,-0.032289,-0.002618,0.008727
51.98,-0.033161,-0.001745,0.004363
52,-0.022689,-0.004363,0.001745
52.02,-0.016581,-0.004363,-0.002618
52.04,-0.009599,0.004363,-0.006981
52.06,-0.005236,0.000873,-0.003491
52.08,-0.018326,0.001745,0.002618
52.1,-0.038397,0.001745,0.001745
52.12,-0.036652,-0.004363,-0.002618
52.14,-0.018326,-0.004363,-0.001745
52.16,-0.003491,-0.008727,-0.001745
52.18,0,-0.005236,-0.007854
52.2,-0.01309,0.000873,-0.008727
52.22,-0.033161,-0.001745,-0.002618
52.24,-0.040143,-0.000873,0.006109
52.26,-0.027925,-0.002618,0.000873
52.28,-0.018326,-0.002618,-0.002618
52.3,-0.015708,-0.001745,-0.000873
52.32,-0.019199,-0.003491,-0.001745
52.34,-0.022689,-0.005236,0.004363
52.36,-0.019199,-0.001745,0.003491
52.38,-0.021817,-0.001745,-0.001745
52.4,-0.018326,0.000873,-0.006981
52.42,-0.014835,-0.002618,-0.002618
52.44,-0.005236,-0.004363,-0.001745
52.46,-0.007854,-0.004363,-0.000873
52.48,-0.009599,-0.005236,0.004363
52.5,-0.004363,-0.006109,-0.003491
52.52,-0.021817,-0.002618,-0.006981
52.54,-0.038397,-0.006109,0
52.56,-0.043633,-0.006109,0.004363
52.58,-0.030543,0.004363,0.002618
52.6,-0.011345,-0.001745,-0.002618
52.62,-0.005236,-0.003491,0.003491
52.64,-0.004363,-0.004363,0
52.66,-0.012217,-0.006981,0.000873
52.68,-0.016581,-0.002618,0.004363
52.7,-0.024435,-0.005236,0.005236
52.72,-0.015708,0,0.006109
52.74,-0.009599,0.000873,-0.002618
52.76,-0.008727,0.000873,-0.001745
52.78,-0.014835,-0.005236,0.000873
52.8,-0.017453,-0.001745,0
52.82,-0.029671,0.002618,-0.000873
52.84,-0.034907,-0.002618,0.000873
52.86,-0.025307,0.003491,0.001745
52.88,-0.016581,0.001745,-0.000873
52.9,-0.012217,-0.000873,-0.001745
52.92,-0.017453,-0.001745,-0.005236
52.94,-0.016581,0,-0.006981
52.96,-0.020071,-0.000873,-0.004363
52.98,-0.023562,-0.000873,0.001745
53,-0.021817,0.001745,0.006109
53.02,-0.025307,-0.001745,0
53.04,-0.020071,-0.005236,-0.003491
53.06,-0.019199,-0.000873,0.001745
53.08,-0.017453,-0.002618,0.002618
53.1,-0.020071,0.002618,0
53.12,-0.023562,-0.002618,-0.001745
53.14,-0.022689,-0.001745,0.002618
53.16,-0.019199,0.002618,0.004363
53.18,-0.015708,-0.003491,-0.002618
53.2,-0.015708,-0.001745,-0.004363
53.22,-0.020944,0.001745,-0.008727
53.24,-0.035779,0,0.003491
53.26,-0.036652,0,0.009599
53.28,-0.033161,0,0.004363
53.3,-0.019199,0,-0.003491
53.32,-0.004363,-0.001745,-0.004363
53.34,-0.000873,0.006109,-0.006981
53.36,-0.002618,0.000873,-0.005236
53.38,-0.020071,0,-0.000873
53.4,-0.040143,-0.005236,0.001745
53.42,-0.041888,0.001745,0.000873
53.44,-0.031416,-0.005236,0.000873
53.46,-0.020071,0,0.000873
53.48,-0.004363,-0.009599,-0.007854
53.5,-0.006981,-0.004363,-0.006109
53.52,-0.018326,-0.001745,0.000873
53.54,-0.033161,-0.002618,0.002618
53.56,-0.035779,-0.006109,0.003491
53.58,-0.025307,-0.007854,0.003491
53.6,-0.021817,-0.006109,-0.000873
53.62,-0.002618,-0.001745,-0.002618
53.64,0,0,-0.002618
53.66,-0.004363,0.001745,0.002618
53.68,-0.020944,-0.000873,0.004363
53.7,-0.031416,-0.000873,0.007854
53.72,-0.034907,-0.004363,0.002618
53.74,-0.019199,-0.000873,-0.002618
53.76,-0.011345,0,-0.002618
53.78,-0.015708,-0.005236,-0.001745
53.8,-0.027053,-0.000873,-0.002618
53.82,-0.030543,-0.001745,-0.000873
53.84,-0.028798,-0.004363,0.002618
53.86,-0.023562,0.000873,-0.002618
53.88,-0.007854,-0.004363,-0.003491
53.9,-0.006981,-0.003491,-0.002618
53.92,-0.012217,-0.000873,0.004363
53.94,-0.014835,0.002618,0.005236
53.96,-0.028798,0,0.003491
53.98,-0.032289,-0.000873,0.001745
54,-0.020071,-0.001745,0
54.02,-0.018326,0.002618,-0.000873
54.04,-0.016581,-0.000873,-0.004363
54.06,-0.009599,-0.000873,-0.007854
54.08,-0.005236,0,-0.004363
54.1,-0.016581,0.000873,-0.004363
54.12,-0.022689,0,-0.003491
54.14,-0.038397,-0.003491,0.004363
54.16,-0.040143,0.000873,0.003491
54.18,-0.038397,0,-0.000873
54.2,-0.018326,0.003491,-0.002618
54.22,0.001745,0.002618,-0.001745
54.24,0.002618,0.000873,0
54.26,-0.010472,-0.006109,0.003491
54.28,-0.025307,-0.002618,-0.002618
54.3,-0.036652,0.000873,0
54.32,-0.036652,0.003491,0.000873
54.34,-0.025307,-0.000873,-0.000873
54.36,-0.010472,-0.000873,-0.002618
54.38,-0.000873,-0.003491,-0.007854
54.4,-0.006981,0.002618,-0.004363
54.42,-0.014835,-0.000873,-0.006109
54.44,-0.024435,-0.001745,0.000873
54.46,-0.032289,0.001745,0.009599
54.48,-0.027925,-0.002618,0.001745
54.5,-0.023562,-0.001745,-0.001745
54.52,-0.019199,-0.001745,-0.001745
54.54,-0.013963,-0.005236,-0.000873
54.56,-0.014835,0,0.000873
54.58,-0.019199,0.002618,-0.001745
54.6,-0.021817,-0.001745,-0.001745
54.62,-0.02618,-0.003491,0.005236
54.64,-0.020944,-0.001745,0.003491
54.66,-0.014835,0,0.000873
54.68,-0.013963,0,0.003491
54.7,-0.017453,-0.000873,0.001745
54.72,-0.020071,0.002618,-0.000873
54.74,-0.021817,-0.001745,0
54.76,-0.014835,0.004363,-0.001745
54.78,-0.021817,0.002618,-0.003491
54.8,-0.022689,-0.006109,0
54.82,-0.023562,-0.000873,0.000873
54.84,-0.020071,0.002618,0.002618
54.86,-0.020071,-0.003491,0.002618
54.88,-0.020944,-0.002618,0.001745
54.9,-0.018326,-0.004363,0
54.92,-0.016581,-0.000873,-0.003491
54.94,-0.007854,-0.001745,-0.000873
54.96,-0.006109,-0.005236,-0.010472
54.98,-0.023562,-0.004363,-0.006981
55,-0.025307,-0.002618,-0.000873
55.02,-0.034034,-0.004363,0.005236
55.04,-0.020944,-0.002618,0.007854
55.06,-0.006981,-0.004363,0.000873
55.08,-0.003491,-0.001745,-0.005236
55.1,-0.012217,-0.001745,-0.006981
55.12,-0.017453,0,-0.002618
55.14,-0.032289,0.003491,0.005236
55.16,-0.033161,-0.001745,0.000873
55.18,-0.027925,0,-0.000873
55.2,-0.019199,0,0
55.22,-0.01309,-0.001745,-0.001745
55.24,-0.012217,0.003491,-0.000873
55.26,-0.018326,0.002618,-0.004363
55.28,-0.027925,0,-0.004363
55.3,-0.029671,-0.000873,-0.006109
55.32,-0.016581,0,0.000873
55.34,-0.005236,0.004363,0.005236
55.36,-0.008727,-0.000873,-0.004363
55.38,-0.01309,-0.002618,-0.012217
55.4,-0.018326,0.001745,-0.004363
55.42,-0.028798,0,0.002618
55.44,-0.028798,-0.002618,0.004363
55.46,-0.028798,0.006109,-0.002618
55.48,-0.016581,0.001745,-0.007854
55.5,-0.012217,-0.002618,-0.005236
55.52,-0.003491,-0.003491,0.006109
55.54,-0.001745,-0.006109,0.003491
55.56,-0.014835,-0.003491,-0.001745
55.58,-0.023562,-0.002618,-0.004363
55.6,-0.027925,0,0.000873
55.62,-0.031416,0.002618,0.003491
55.64,-0.032289,0.003491,0.002618
55.66,-0.016581,-0.002618,0
55.68,0.001745,-0.002618,-0.000873
55.7,0,-0.002618,-0.002618
55.72,-0.008727,-0.004363,-0.005236
55.74,-0.016581,-0.006981,0.002618
55.76,-0.027053,-0.000873,0.004363
55.78,-0.036652,-0.005236,0.005236
55.8,-0.035779,-0.005236,-0.001745
55.82,-0.028798,-0.001745,0.006109
55.84,-0.02618,-0.004363,0
55.86,-0.020071,-0.001745,-0.005236
55.88,-0.024435,-0.002618,-0.006109
55.9,-0.019199,-0.000873,-0.000873
55.92,-0.02618,0.004363,0.004363
55.94,-0.024435,-0.000873,0.006109
55.96,-0.025307,-0.004363,-0.005236
55.98,-0.023562,-0.003491,-0.002618
56,-0.022689,0.003491,0.001745
56.02,-0.027925,0.001745,-0.001745
56.04,-0.038397,0.001745,0.004363
56.06,-0.03927,0.006109,0.003491
56.08,-0.038397,0.002618,-0.003491
56.1,-0.027925,0.002618,-0.002618
56.12,-0.011345,-0.000873,-0.002618
56.14,-0.006981,0,-0.002618
56.16,-0.01309,0,-0.005236
56.18,-0.020071,-0.004363,-0.004363
56.2,-0.030543,-0.005236,0.003491
56.22,-0.029671,-0.002618,0.004363
56.24,-0.020944,-0.003491,0.000873
56.26,-0.009599,0.000873,-0.003491
56.28,-0.000873,0,-0.011345
56.3,0.004363,0.001745,-0.001745
56.32,-0.007854,-0.001745,0.007854
56.34,-0.022689,-0.002618,0.005236
56.36,-0.021817,0.001745,-0.006981
56.38,-0.023562,0,0
56.4,-0.018326,0.003491,-0.002618
56.42,-0.01309,-0.003491,0
56.44,-0.016581,-0.004363,-0.002618
56.46,-0.020944,-0.006981,-0.008727
56.48,-0.017453,-0.000873,0
56.5,-0.020071,0,-0.004363
56.52,-0.009599,-0.001745,0
56.54,-0.015708,-0.005236,-0.006109
56.56,-0.018326,-0.003491,-0.007854
56.58,-0.013963,0.000873,-0.003491
56.6,-0.013963,0,0.004363
56.62,-0.019199,-0.005236,0.004363
56.64,-0.011345,0.001745,-0.001745
56.66,-0.011345,-0.002618,-0.002618
56.68,-0.016581,-0.001745,-0.001745
56.7,-0.012217,0.000873,-0.003491
56.72,-0.009599,-0.005236,-0.002618
56.74,-0.018326,-0.001745,-0.001745
56.76,-0.025307,-0.002618,0.001745
56.78,-0.019199,-0.000873,0
56.8,-0.017453,0.000873,-0.000873
56.82,-0.017453,-0.000873,0
56.84,-0.020944,0.003491,-0.000873
56.86,-0.017453,-0.002618,-0.001745
56.88,-0.023562,0.001745,-0.003491
56.9,-0.024435,0.000873,-0.003491
56.92,-0.024435,0.000873,-0.005236
56.94,-0.025307,0,0.001745
56.96,-0.024435,-0.000873,0.006981
56.98,-0.033161,0,-0.001745
57,-0.02618,0.002618,-0.000873
57.02,-0.022689,0.000873,-0.004363
57.04,-0.017453,-0.001745,0.003491
57.06,-0.020944,0,-0.002618
57.08,-0.023562,0,-0.002618
57.1,-0.023562,0.003491,0.001745
57.12,-0.021817,0.003491,0.006981
57.14,-0.017453,0,0.001745
57.16,-0.021817,0,-0.007854
57.18,-0.020944,-0.006109,-0.001745
57.2,-0.020944,-0.002618,0.003491
57.22,-0.024435,-0.003491,0.005236
57.24,-0.022689,-0.001745,0
57.26,-0.018326,-0.001745,0.001745
57.28,-0.019199,-0.001745,0
57.3,-0.008727,0.004363,-0.000873
57.32,-0.01309,0.004363,0
57.34,-0.016581,0.002618,-0.003491
57.36,-0.023562,0.005236,-0.004363
57.38,-0.028798,0.006981,-0.005236
57.4,-0.036652,-0.000873,0.004363
57.42,-0.032289,-0.002618,0.003491
57.44,-0.02618,-0.002618,-0.001745
57.46,-0.017453,0,-0.001745
57.48,-0.018326,-0.000873,-0.005236
57.5,-0.016581,-0.000873,-0.004363
57.52,-0.022689,-0.007854,0.004363
57.54,-0.020944,-0.002618,0.000873
57.56,-0.020944,-0.003491,0.002618
57.58,-0.022689,-0.001745,-0.003491
57.6,-0.027053,-0.001745,-0.000873
57.62,-0.030543,-0.000873,0.003491
57.64,-0.023562,-0.002618,0.004363
57.66,-0.019199,0.000873,-0.002618
57.68,-0.017453,-0.002618,0
57.7,-0.015708,0.001745,0
57.72,-0.011345,0.002618,0.001745
57.74,-0.011345,0.004363,0
57.76,-0.023562,-0.002618,-0.003491
57.78,-0.027925,-0.002618,-0.001745
57.8,-0.030543,-0.000873,0
57.82,-0.021817,-0.000873,0.010472
57.84,0,-0.006109,0.012217
57.86,0.004363,0.001745,0.019199
57.88,-0.011345,-0.003491,0.025307
57.9,-0.031416,-0.005236,0.044506
57.92,-0.042761,-0.001745,0.057596
57.94,-0.044506,-0.001745,0.074176
57.96,-0.041888,0.004363,0.085521
57.98,-0.029671,-0.000873,0.089012
58,-0.018326,0,0.070686
58.02,-0.015708,-0.002618,0.046251
58.04,-0.013963,0.003491,0.022689
58.06,-0.012217,-0.001745,0
58.08,-0.020944,-0.011345,-0.020071
58.1,-0.027053,0.000873,-0.030543
58.12,-0.027053,-0.004363,-0.044506
58.14,-0.018326,0.001745,-0.057596
58.16,-0.006981,0,-0.06545
58.18,0.011345,-0.003491,-0.068941
58.2,0.006981,-0.001745,-0.070686
58.22,-0.006981,-0.003491,-0.068941
58.24,-0.020944,-0.003491,-0.064577
58.26,-0.028798,0.001745,-0.054105
58.28,-0.030543,0.003491,-0.043633
58.3,-0.021817,-0.002618,-0.02618
58.32,-0.012217,-0.005236,-0.011345
58.34,-0.007854,0.001745,-0.009599
58.36,-0.017453,0.002618,-0.016581
58.38,-0.021817,0.001745,-0.033161
58.4,-0.025307,-0.004363,-0.028798
58.42,-0.020944,0.001745,-0.018326
58.44,-0.014835,-0.003491,-0.007854
58.46,0.000873,-0.006981,0.013963
58.48,-0.003491,-0.001745,0.022689
58.5,-0.020071,0.002618,0.028798
58.52,-0.049742,0.001745,0.038397
58.54,-0.064577,0.001745,0.042761
58.56,-0.048869,0.002618,0.038397
58.58,-0.009599,-0.003491,0.034034
58.6,0.016581,-0.003491,0.012217
58.62,0.018326,-0.005236,-0.000873
58.64,-0.009599,-0.008727,-0.020944
58.66,-0.045379,0.001745,-0.017453
58.68,-0.064577,0,-0.001745
58.7,-0.050615,0,0.013963
58.72,-0.013963,0,0.011345
58.74,0.008727,-0.002618,0.000873
58.76,0.009599,-0.001745,-0.01309
58.78,-0.012217,-0.001745,-0.015708
58.8,-0.041015,0,-0.001745
58.82,-0.045379,0.000873,0.006109
58.84,-0.034907,-0.002618,0.012217
58.86,-0.007854,0.006109,0.003491
58.88,-0.002618,0.003491,-0.005236
58.9,-0.006981,-0.002618,-0.011345
58.92,-0.023562,-0.000873,-0.003491
58.94,-0.030543,-0.001745,0.004363
58.96,-0.027053,-0.003491,0.002618
58.98,-0.019199,-0.002618,-0.001745
59,-0.01309,0,0
59.02,-0.011345,-0.003491,-0.005236
59.04,-0.015708,-0.001745,0.000873
59.06,-0.027925,0,0.001745
59.08,-0.02618,-0.001745,0
59.1,-0.016581,-0.000873,-0.006981
59.12,-0.01309,0.001745,-0.006109
59.14,-0.009599,-0.000873,-0.006109
59.16,-0.015708,-0.001745,0.001745
59.18,-0.022689,0.000873,-0.001745
59.2,-0.033161,-0.004363,-0.000873
59.22,-0.030543,-0.005236,0.004363
59.24,-0.016581,-0.008727,0.006109
59.26,-0.007854,-0.000873,-0.004363
59.28,-0.008727,-0.003491,-0.007854
59.3,-0.015708,-0.000873,-0.003491
59.32,-0.020944,-0.005236,-0.008727
59.34,-0.029671,0.001745,0.001745
59.36,-0.028798,0.004363,0.003491
59.38,-0.020071,0.000873,0.004363
59.4,-0.009599,0,-0.004363
59.42,-0.005236,-0.000873,-0.003491
59.44,-0.010472,-0.002618,-0.001745
59.46,-0.024435,0.000873,-0.004363
59.48,-0.03927,0.001745,0.006109
59.5,-0.047997,0.005236,0.003491
59.52,-0.027053,0.004363,0.001745
59.54,-0.008727,-0.005236,-0.001745
59.56,0.000873,-0.001745,-0.003491
59.58,-0.007854,0,-0.005236
59.6,-0.012217,-0.005236,0
59.62,-0.022689,-0.003491,0.006981
59.64,-0.025307,-0.002618,0.006981
59.66,-0.02618,-0.005236,-0.002618
59.68,-0.024435,0.004363,-0.002618
59.7,-0.017453,0.002618,-0.002618
59.72,-0.01309,-0.003491,-0.005236
59.74,-0.014835,-0.002618,0
59.76,-0.021817,-0.001745,0
59.78,-0.02618,-0.000873,-0.004363
59.8,-0.025307,-0.001745,0.003491
59.82,-0.022689,-0.001745,0.002618
59.84,-0.021817,0.001745,0.001745
59.86,-0.013963,-0.003491,-0.003491
59.88,-0.015708,-0.000873,-0.007854
59.9,-0.032289,0.002618,-0.001745
59.92,-0.037525,-0.003491,0.000873
59.94,-0.025307,-0.001745,0.005236
59.96,-0.01309,-0.001745,-0.002618
59.98,-0.014835,0.000873,-0.006981
60,-0.01309,-0.003491,-0.002618
60.02,-0.014835,0.000873,0.001745
60.04,-0.022689,0,0.006981
60.06,-0.025307,0,0.003491
60.08,-0.030543,-0.002618,-0.001745
60.1,-0.015708,-0.002618,-0.003491
60.12,-0.010472,-0.004363,-0.004363
60.14,-0.006109,0,-0.004363
60.16,-0.015708,0,-0.005236
60.18,-0.030543,-0.003491,0.001745
60.2,-0.035779,0,0.006981
60.22,-0.02618,0.003491,0.006109
60.24,-0.01309,-0.002618,-0.002618
60.26,-0.006109,0.000873,-0.002618
60.28,-0.007854,0,-0.008727
60.3,-0.02618,0,0.003491
60.32,-0.035779,-0.006109,0.003491
60.34,-0.036652,-0.003491,-0.000873
60.36,-0.031416,-0.001745,-0.001745
60.38,-0.022689,0.003491,-0.002618
60.4,-0.015708,-0.001745,0
60.42,-0.017453,0.001745,-0.000873
60.44,-0.021817,0,0.003491
60.46,-0.025307,-0.004363,-0.001745
60.48,-0.020071,0.000873,-0.001745
60.5,-0.019199,0,-0.001745
60.52,-0.014835,0,-0.001745
60.54,-0.015708,-0.000873,0.000873
60.56,-0.013963,-0.005236,0.001745
60.58,-0.019199,0.000873,-0.000873
60.6,-0.027925,-0.001745,0.002618
60.62,-0.024435,0.001745,0.007854
60.64,-0.023562,0.006981,0.005236
60.66,-0.018326,-0.006981,-0.006109
60.68,-0.020071,-0.000873,-0.006981
60.7,-0.006981,-0.000873,0.000873
60.72,-0.005236,0.000873,-0.000873
60.74,-0.021817,0,-0.003491
60.76,-0.034907,-0.001745,0.000873
60.78,-0.033161,-0.006981,-0.000873
60.8,-0.023562,-0.004363,0.002618
60.82,-0.007854,-0.002618,0.002618
60.84,-0.003491,0,-0.005236
60.86,-0.004363,0.001745,-0.010472
60.88,-0.016581,-0.000873,-0.005236
60.9,-0.027925,-0.000873,0.004363
60.92,-0.025307,-0.001745,0.006981
60.94,-0.022689,-0.004363,-0.000873
60.96,-0.017453,0,-0.006109
60.98,-0.013963,0,0.000873
61,-0.010472,0,0.001745
61.02,-0.023562,0,0.001745
61.04,-0.034034,-0.003491,-0.000873
61.06,-0.035779,-0.002618,0.002618
61.08,-0.030543,-0.007854,0.002618
61.1,-0.021817,-0.000873,0.008727
61.12,-0.01309,-0.003491,-0.005236
61.14,-0.000873,-0.006109,-0.008727
61.16,-0.011345,-0.003491,-0.013963
61.18,-0.020944,-0.000873,0.001745
61.2,-0.034034,0.005236,0.006981
61.22,-0.034034,-0.000873,0.002618
61.24,-0.020944,-0.005236,0.001745
61.26,-0.010472,0,-0.005236
61.28,-0.007854,0,-0.003491
61.3,-0.013963,0.004363,-0.003491
61.32,-0.028798,-0.003491,0.001745
61.34,-0.02618,-0.002618,0.008727
61.36,-0.028798,0.000873,0.007854
61.38,-0.020944,-0.001745,-0.006981
61.4,-0.013963,0.001745,-0.004363
61.42,-0.015708,0.002618,0
61.44,-0.022689,0.000873,0.003491
61.46,-0.030543,-0.004363,0
61.48,-0.02618,-0.001745,-0.002618
61.5,-0.010472,-0.004363,0.003491
61.52,-0.007854,-0.005236,-0.006981
61.54,-0.011345,-0.002618,-0.004363
61.56,-0.017453,-0.000873,-0.006981
61.58,-0.032289,0.003491,0.003491
61.6,-0.037525,-0.001745,0.001745
61.62,-0.029671,-0.000873,0.007854
61.64,-0.014835,0.000873,0
61.66,-0.000873,-0.004363,-0.010472
61.68,-0.006109,-0.005236,-0.010472
61.7,-0.008727,-0.002618,-0.005236
61.72,-0.029671,-0.004363,0.007854
61.74,-0.035779,0.002618,0.009599
61.76,-0.031416,0.001745,0.007854
61.78,-0.017453,0.003491,-0.000873
61.8,-0.003491,0,-0.004363
61.82,0.001745,-0.002618,-0.006109
61.84,-0.002618,0.003491,-0.005236
61.86,-0.017453,-0.001745,-0.001745
61.88,-0.032289,0,0
61.9,-0.035779,0,-0.006109
61.92,-0.027925,0.001745,0.001745
61.94,-0.023562,-0.000873,0.002618
61.96,-0.016581,-0.000873,0
61.98,-0.006109,-0.002618,-0.002618
62,-0.012217,-0.001745,-0.002618
62.02,-0.020944,-0.001745,-0.000873
62.04,-0.020071,-0.000873,-0.000873
62.06,-0.023562,-0.002618,-0.001745
62.08,-0.023562,-0.002618,0.000873
62.1,-0.014835,-0.004363,0
62.12,-0.013963,-0.003491,0.001745
62.14,-0.018326,-0.001745,-0.006109
62.16,-0.018326,0,0.001745
62.18,-0.023562,-0.002618,-0.008727
62.2,-0.027053,-0.003491,-0.011345
62.22,-0.027925,-0.002618,0.000873
62.24,-0.027925,0.001745,0.001745
62.26,-0.019199,-0.001745,-0.003491
62.28,-0.017453,0,0
62.3,-0.014835,0.000873,-0.000873
62.32,-0.021817,-0.001745,-0.000873
62.34,-0.025307,-0.001745,0.006981
62.36,-0.027053,0.001745,0.006109
62.38,-0.017453,-0.000873,-0.003491
62.4,-0.011345,-0.001745,0.000873
62.42,-0.016581,0,0.005236
62.44,-0.015708,-0.004363,0.006109
62.46,-0.025307,-0.000873,0.005236
62.48,-0.020944,0.002618,0.002618
62.5,-0.018326,-0.000873,-0.002618
62.52,-0.015708,-0.006981,-0.001745
62.54,-0.015708,-0.001745,-0.001745
62.56,-0.007854,0.001745,0.005236
62.58,-0.01309,-0.008727,0.004363
62.6,-0.028798,-0.002618,0.001745
62.62,-0.025307,0,-0.001745
62.64,-0.02618,-0.006109,0
62.66,-0.024435,0.000873,0.004363
62.68,-0.015708,-0.000873,0.001745
62.7,-0.020071,-0.004363,-0.002618
62.72,-0.017453,0.001745,-0.004363
62.74,-0.021817,0.000873,-0.004363
62.76,-0.027053,-0.001745,-0.006109
62.78,-0.034907,-0.006109,0.004363
62.8,-0.034034,-0.004363,0.002618
62.82,-0.012217,0.003491,-0.004363
62.84,-0.005236,0.005236,-0.002618
62.86,-0.003491,0.001745,-0.003491
62.88,-0.005236,-0.004363,0
62.9,-0.022689,0,-0.000873
62.92,-0.030543,-0.002618,-0.005236
62.94,-0.027925,0.001745,0.001745
62.96,-0.016581,0.001745,0.003491
62.98,-0.01309,-0.006109,0
63,-0.016581,0.001745,-0.009599
63.02,-0.019199,0.005236,-0.004363
63.04,-0.024435,-0.000873,-0.003491
63.06,-0.024435,-0.000873,0.002618
63.08,-0.020071,0.000873,0.008727
63.1,-0.021817,-0.000873,-0.004363
63.12,-0.015708,-0.000873,-0.006981
63.14,-0.006109,0.000873,0.000873
63.16,-0.009599,0,0.002618
63.18,-0.017453,0.000873,-0.000873
63.2,-0.020944,0.001745,-0.001745
63.22,-0.027925,-0.006109,0.003491
63.24,-0.020944,-0.006109,0.000873
63.26,-0.010472,0.000873,0
63.28,-0.006109,0,-0.004363
63.3,-0.008727,-0.000873,-0.000873
63.32,-0.015708,0.000873,0.003491
63.34,-0.027053,0.000873,0
63.36,-0.032289,0.000873,0.001745
63.38,-0.031416,-0.006981,0
63.4,-0.01309,-0.004363,-0.001745
63.42,-0.008727,-0.001745,-0.004363
63.44,-0.013963,-0.001745,0.001745
63.46,-0.034034,-0.000873,0.000873
63.48,-0.038397,-0.000873,0.004363
63.5,-0.038397,-0.001745,0.001745
63.52,-0.033161,-0.003491,0.002618
63.54,-0.025307,-0.006981,0.003491
63.56,-0.007854,0.000873,-0.001745
63.58,0.001745,0.000873,0.002618
63.6,0.012217,-0.003491,-0.006109
63.62,0.01309,0,-0.003491
63.64,-0.013963,-0.002618,-0.006109
63.66,-0.040143,-0.000873,0
63.68,-0.046251,0.001745,0.005236
63.7,-0.035779,-0.001745,0.005236
63.72,-0.017453,-0.004363,0.000873
63.74,-0.005236,-0.000873,-0.006109
63.76,-0.008727,-0.003491,-0.007854
63.78,-0.013963,-0.004363,0.006109
63.8,-0.020944,-0.003491,0.006109
63.82,-0.025307,0,0.006109
63.84,-0.019199,-0.000873,0.000873
63.86,-0.013963,0,-0.008727
63.88,-0.012217,-0.004363,-0.010472
63.9,-0.017453,0.000873,-0.004363
63.92,-0.029671,-0.002618,-0.003491
63.94,-0.031416,-0.001745,0
63.96,-0.020944,-0.000873,-0.004363
63.98,-0.006981,-0.001745,-0.004363
64,-0.01309,0,-0.007854
64.02,-0.021817,-0.002618,-0.006981
64.04,-0.031416,-0.007854,-0.003491
64.06,-0.033161,-0.001745,0.000873
64.08,-0.025307,-0.001745,0.000873
64.1,-0.006109,-0.003491,0
64.12,0.006981,0.000873,-0.000873
64.14,-0.002618,0,-0.006109
64.16,-0.035779,-0.003491,-0.003491
64.18,-0.060214,-0.000873,0.003491
64.2,-0.06545,-0.003491,0.007854
64.22,-0.034034,-0.006109,0.008727
64.24,0.003491,0,0.000873
64.26,0.021817,-0.002618,-0.008727
64.28,0.020944,0.001745,-0.007854
64.3,-0.011345,0.001745,-0.006981
64.32,-0.056723,0.003491,0.005236
64.34,-0.068068,0.003491,0.018326
64.36,-0.054978,0.001745,0.006109
64.38,-0.027053,-0.000873,-0.001745
64.4,0.006981,0.002618,-0.005236
64.42,0.015708,-0.003491,-0.005236
64.44,0.006109,-0.002618,0.000873
64.46,-0.017453,-0.003491,0.003491
64.48,-0.037525,-0.002618,0.004363
64.5,-0.038397,-0.009599,-0.000873
64.52,-0.028798,-0.002618,-0.000873
64.54,-0.014835,-0.004363,-0.001745
64.56,0.011345,-0.007854,-0.002618
64.58,0.004363,-0.007854,-0.004363
64.6,-0.010472,-0.002618,-0.002618
64.62,-0.035779,0.001745,-0.004363
64.64,-0.049742,0.001745,0.001745
64.66,-0.043633,0.002618,0.004363
64.68,-0.020071,0,0.002618
64.7,-0.006981,-0.000873,-0.002618
64.72,-0.013963,-0.000873,-0.004363
64.74,-0.020944,0,0.003491
64.76,-0.021817,-0.002618,0.008727
64.78,-0.020071,-0.003491,0.000873
64.8,-0.017453,-0.005236,-0.004363
64.82,-0.018326,0.000873,-0.003491
64.84,-0.019199,0.004363,0.003491
64.86,-0.017453,-0.006109,0.004363
64.88,-0.023562,-0.001745,0.010472
64.9,-0.031416,-0.002618,0.003491
64.92,-0.029671,-0.005236,0.006109
64.94,-0.018326,-0.003491,0.004363
64.96,-0.008727,-0.000873,0
64.98,-0.007854,0,-0.000873
65,-0.02618,0.001745,-0.000873
65.02,-0.027053,0.001745,-0.000873
65.04,-0.035779,-0.000873,0.007854
65.06,-0.033161,0,0.007854
65.08,-0.025307,0,-0.001745
65.1,-0.016581,-0.001745,-0.000873
65.12,-0.006109,-0.006109,-0.000873
65.14,-0.018326,-0.002618,0.001745
65.16,-0.021817,-0.000873,0.006109
65.18,-0.02618,-0.005236,-0.000873
65.2,-0.022689,0,-0.006109
65.22,-0.013963,-0.003491,0.004363
65.24,-0.004363,-0.006109,-0.001745
65.26,-0.004363,-0.003491,0.002618
65.28,-0.010472,0.000873,-0.003491
65.3,-0.028798,-0.004363,-0.008727
65.32,-0.041015,-0.007854,0
65.34,-0.031416,0.003491,0.009599
65.36,-0.018326,-0.000873,0.005236
65.38,-0.000873,-0.002618,-0.004363
65.4,0.002618,-0.011345,-0.006981
65.42,-0.006109,0.002618,-0.008727
65.44,-0.029671,-0.003491,-0.004363
65.46,-0.043633,0.001745,0.006981
65.48,-0.054105,-0.004363,0.011345
65.5,-0.034907,-0.001745,0
65.52,-0.006109,-0.006981,0
65.54,0.014835,-0.006981,-0.006109
65.56,0.009599,0,-0.002618
65.58,-0.004363,-0.005236,-0.000873
65.6,-0.027053,0.001745,0.001745
65.62,-0.045379,-0.007854,-0.000873
65.64,-0.034034,0.005236,0.002618
65.66,-0.017453,-0.007854,0.006109
65.68,-0.005236,0,-0.001745
65.7,-0.005236,-0.001745,-0.009599
65.72,-0.006981,-0.007854,-0.000873
65.74,-0.020944,0,-0.000873
65.76,-0.034034,-0.006981,0.002618
65.78,-0.033161,0.002618,0.005236
65.8,-0.033161,-0.000873,0.003491
65.82,-0.017453,0.005236,-0.005236
65.84,-0.018326,-0.002618,0
65.86,-0.024435,-0.003491,0.003491
65.88,-0.022689,-0.000873,0.000873
65.9,-0.017453,-0.002618,0.000873
65.92,-0.013963,0,0.002618
65.94,-0.015708,0.005236,0.001745
65.96,-0.024435,0,-0.006981
65.98,-0.028798,-0.005236,-0.007854
66,-0.031416,0.004363,0.003491
66.02,-0.020944,-0.001745,0
66.04,-0.010472,-0.001745,0.005236
66.06,-0.009599,-0.005236,0.005236
66.08,-0.01309,0.002618,0.002618
66.1,-0.023562,-0.004363,0.002618
66.12,-0.031416,0.004363,-0.004363
66.14,-0.027925,0.002618,-0.003491
66.16,-0.017453,0.001745,-0.005236
66.18,-0.018326,-0.003491,-0.002618
66.2,-0.020071,0.001745,0.006109
66.22,-0.017453,0.003491,0.003491
66.24,-0.032289,-0.008727,0.002618
66.26,-0.024435,-0.002618,0
66.28,-0.022689,-0.011345,-0.001745
66.3,-0.019199,-0.020071,-0.005236
66.32,-0.011345,0.016581,-0.003491
66.34,-0.007854,-0.012217,-0.005236
66.36,-0.006109,0.020071,-0.011345
66.38,-0.018326,-0.023562,-0.012217
66.4,-0.034034,0.011345,-0.008727
66.42,-0.061087,-0.012217,-0.000873
66.44,-0.059341,-0.013963,0.011345
66.46,-0.047124,0.027925,0.019199
66.48,-0.032289,-0.027053,0.010472
66.5,-0.009599,0.013963,0.01309
66.52,-0.009599,-0.01309,0.011345
66.54,-0.020944,-0.024435,0.010472
66.56,-0.040143,0.021817,0
66.58,-0.049742,-0.046251,-0.001745
66.6,-0.036652,-0.018326,0.021817
66.62,0.000873,0.041015,0.020944
66.64,0.020944,-0.034034,0.015708
66.66,0.019199,0,0.005236
66.68,-0.013963,0.012217,-0.007854
66.7,-0.035779,-0.007854,-0.016581
66.72,-0.020071,-0.013963,-0.009599
66.74,-0.010472,-0.01309,0.006981
66.76,0.000873,-0.003491,0.003491
66.78,-0.027053,-0.016581,0
66.8,-0.056723,0.002618,0.006981
66.82,-0.061087,-0.066323,0.015708
66.84,-0.047124,0.020071,0.012217
66.86,-0.020944,0.024435,0.011345
66.88,-0.013963,-0.081158,0.002618
66.9,-0.027925,0.012217,0.005236
66.92,-0.045379,-0.004363,0.011345
66.94,-0.067195,-0.056723,0.006981
66.96,-0.061087,0.034907,0.011345
66.98,-0.018326,-0.004363,0.017453
67,0.027925,-0.020071,0.014835
67.02,0.066323,0.006981,0.01309
67.04,0.08203,-0.009599,-0.002618
67.06,0.041015,0,-0.003491
67.08,-0.02618,-0.01309,-0.002618
67.1,-0.083776,-0.010472,0.003491
67.12,-0.09163,-0.024435,0.017453
67.14,-0.06545,-0.064577,0.034034
67.16,-0.018326,0.037525,0.041015
67.18,0.014835,-0.020944,0.029671
67.2,-0.011345,-0.03927,0.019199
67.22,-0.046251,-0.01309,0.006981
67.24,-0.043633,-0.009599,0.005236
67.26,-0.016581,0.005236,0.005236
67.28,0.07854,-0.005236,0.005236
67.3,0.099484,-0.050615,0.002618
67.32,0.073304,-0.035779,-0.007854
67.34,0.004363,0.02618,-0.000873
67.36,-0.077667,-0.024435,0.009599
67.38,-0.142244,-0.030543,0.020071
67.4,-0.141372,0.001745,0.027925
67.42,-0.07854,0.011345,0.040143
67.44,0.010472,0.005236,0.041015
67.46,0.089884,-0.030543,0.029671
67.48,0.113446,0.036652,0.015708
67.5,0.046251,0.006981,0.012217
67.52,-0.020071,-0.041888,0.002618
67.54,-0.089012,0.032289,-0.01309
67.56,-0.128282,0.024435,-0.020944
67.58,-0.094248,-0.011345,-0.028798
67.6,-0.017453,0.007854,-0.027053
67.62,0.087266,0.037525,-0.020071
67.64,0.131772,0.027053,-0.020071
67.66,0.109083,-0.020944,-0.034034
67.68,0.038397,0.045379,-0.031416
67.7,-0.050615,-0.002618,-0.03927
67.72,-0.151844,-0.037525,-0.048869
67.74,-0.128282,0.066323,-0.055851
67.76,-0.048869,-0.01309,-0.033161
67.78,0.107338,-0.003491,-0.020071
67.8,0.169297,0.105592,-0.027925
67.82,0.141372,-0.075049,-0.044506
67.84,-0.005236,-0.049742,-0.058469
67.86,-0.163188,0.116937,-0.075049
67.88,-0.253945,0.033161,-0.072431
67.9,-0.254818,-0.068068,-0.046251
67.92,-0.054978,0.06545,-0.041888
67.94,0.171042,0.115192,-0.033161
67.96,0.217293,-0.058469,-0.020944
67.98,0.098611,-0.013963,-0.016581
68,-0.043633,0.085521,0
68.02,-0.129154,-0.006109,0.021817
68.04,-0.182387,-0.024435,0.041015
68.06,-0.102102,0.060214,0.054105
68.08,0.025307,-0.046251,0.053233
68.1,0.106465,-0.020944,0.066323
68.12,0.11781,0.037525,0.069813
68.14,0.044506,-0.023562,0.061087
68.16,-0.031416,0.042761,0.058469
68.18,-0.072431,-0.03927,0.057596
68.2,-0.086394,-0.041888,0.054978
68.22,-0.01309,0.009599,0.054105
68.24,0.082903,0.013963,0.059341
68.26,0.100356,0.003491,0.056723
68.28,0.080285,-0.006109,0.038397
68.3,-0.003491,-0.047997,0.030543
68.32,-0.071558,0.002618,0.012217
68.34,-0.097738,0,0.025307
68.36,-0.113446,0.037525,0.035779
68.38,-0.079412,-0.040143,0.020944
68.4,-0.099484,-0.051487,0.007854
68.42,-0.093375,0.006981,0.011345
68.44,-0.088139,-0.007854,0.016581
68.46,-0.081158,-0.011345,0.020071
68.48,-0.045379,0.011345,0.006109
68.5,-0.042761,0.002618,0.001745
68.52,-0.006981,-0.01309,-0.002618
68.54,-0.020944,0.044506,-0.006981
68.56,0.004363,0.020071,-0.015708
68.58,-0.031416,-0.090757,-0.037525
68.6,-0.013963,-0.01309,-0.03927
68.62,-0.041015,0.069813,-0.033161
68.64,-0.040143,-0.022689,-0.043633
68.66,-0.044506,-0.013963,-0.051487
68.68,-0.036652,0.050615,-0.057596
68.7,-0.033161,0.008727,-0.061087
68.72,-0.011345,-0.028798,-0.070686
68.74,0.020071,-0.004363,-0.082903
68.76,0.069813,0.004363,-0.089012
68.78,0.075049,-0.019199,-0.094248
68.8,0.041015,-0.010472,-0.109083
68.82,0.020944,0.03927,-0.11781
68.84,-0.006981,-0.02618,-0.129154
68.86,0.006981,-0.029671,-0.143117
68.88,0.063705,0.020071,-0.155334
68.9,0.105592,0.001745,-0.178024
68.92,0.050615,-0.013963,-0.203331
68.94,-0.021817,0.016581,-0.230383
68.96,-0.030543,-0.005236,-0.248709
68.98,-0.040143,-0.001745,-0.248709
69,0.006981,-0.019199,-0.253073
69.02,0.09163,-0.041015,-0.262672
69.04,0.133518,-0.019199,-0.271399
69.06,0.096866,0.000873,-0.283616
69.08,0.036652,-0.037525,-0.295833
69.1,0.020071,0.005236,-0.303687
69.12,-0.004363,0.031416,-0.298451
69.14,0.018326,0.032289,-0.305433
69.16,0.094248,-0.007854,-0.294961
69.18,0.050615,-0.049742,-0.27838
69.2,-0.006109,-0.007854,-0.276635
69.22,-0.056723,0.030543,-0.264417
69.24,-0.131772,0.033161,-0.251327
69.26,-0.077667,-0.034907,-0.240855
69.28,-0.040143,-0.036652,-0.212058
69.3,-0.024435,-0.013963,-0.191986
69.32,0.020944,0.005236,-0.159698
69.34,-0.030543,0.016581,-0.116064
69.36,-0.043633,0.005236,-0.068941
69.38,0.003491,0.009599,-0.024435
69.4,-0.059341,-0.014835,0.020071
69.42,0.000873,-0.019199,0.063705
69.44,-0.069813,0.021817,0.114319
69.46,-0.082903,0.05236,0.16057
69.48,-0.046251,0.07854,0.203331
69.5,-0.093375,-0.009599,0.253073
69.52,-0.016581,-0.075049,0.294088
