time,accel_x,accel_y,accel_z,gyro_x,gyro_y,gyro_z
0,1.176502,0.196084,-9.771505,-0.011345,0.029671,0.004363
0.02,1.07846,0.163403,-9.771505,-0.01309,0.022689,0.012217
0.04,1.143822,0.228764,-9.869547,0.000873,0.027053,0.011345
0.06,1.176502,0.196084,-9.771505,-0.015708,0.015708,0.007854
0.08,1.209183,0.163403,-9.771505,-0.018326,0.027925,0.014835
0.1,1.143822,0.261445,-9.804186,-0.018326,0.025307,0.022689
0.12,1.176502,0.163403,-9.771505,-0.005236,0.023562,0.003491
0.14,1.241864,0.098042,-9.771505,-0.019199,0.023562,-0.001745
0.16,1.176502,0.196084,-9.804186,-0.006109,0.015708,0.010472
0.18,1.209183,0.228764,-9.706144,-0.007854,0.020071,0.003491
0.2,1.111141,0.196084,-9.738825,-0.001745,0.019199,0.004363
0.22,1.111141,0.163403,-9.771505,0.006109,0.022689,0.000873
0.24,1.111141,0.130722,-9.738825,-0.006981,0.014835,0.000873
0.26,1.176502,0.163403,-9.738825,0.001745,0.018326,0.002618
0.28,1.143822,0.163403,-9.804186,-0.008727,0.027925,-0.000873
0.3,1.176502,0.163403,-9.771505,-0.032289,0.011345,0.01309
0.32,1.176502,0.196084,-9.836866,-0.016581,0.019199,0.019199
0.34,1.209183,0.098042,-9.738825,-0.017453,0.023562,0.016581
0.36,1.176502,0.196084,-9.771505,-0.033161,0.016581,0.01309
0.38,1.143822,0.196084,-9.771505,-0.016581,0.021817,0.004363
0.4,1.176502,0.261445,-9.771505,-0.006109,0.000873,0.016581
0.42,1.143822,0.163403,-9.771505,-0.019199,0.014835,0.011345
0.44,1.176502,0.228764,-9.771505,-0.023562,0.028798,0.000873
0.46,1.143822,0.196084,-9.738825,-0.009599,0.016581,0.004363
0.48,1.143822,0.196084,-9.836866,-0.01309,0.019199,0.015708
0.5,1.241864,0.196084,-9.836866,-0.000873,0.022689,0.000873
0.52,1.143822,0.163403,-9.836866,-0.018326,0.014835,0.008727
0.54,1.111141,0.196084,-9.706144,-0.017453,0.008727,0.007854
0.56,1.111141,0.228764,-9.836866,-0.015708,0.022689,0.010472
0.58,1.176502,0.228764,-9.738825,-0.007854,0.025307,-0.001745
0.6,1.143822,0.228764,-9.771505,0.003491,0.021817,-0.003491
0.62,1.209183,0.228764,-9.738825,0.002618,0.020944,0.008727
0.64,1.143822,0.228764,-9.673464,-0.010472,0.021817,0.005236
0.66,1.143822,0.196084,-9.771505,-0.015708,0.027053,-0.000873
0.68,1.111141,0.196084,-9.869547,-0.032289,0.014835,0.007854
0.7,1.209183,0.196084,-9.804186,-0.030543,0.020944,0.007854
0.72,1.111141,0.228764,-9.804186,-0.043633,0.014835,0.009599
0.74,1.111141,0.294126,-9.771505,-0.027053,0.019199,0.006981
0.76,1.209183,0.196084,-9.771505,-0.034907,0.02618,0.010472
0.78,1.176502,0.196084,-9.836866,-0.021817,-0.000873,0.012217
0.8,1.209183,0.228764,-9.738825,0.000873,0.006109,0.000873
0.82,1.209183,0.196084,-9.706144,-0.000873,0.023562,0.004363
0.84,1.209183,0.228764,-9.738825,-0.002618,0.012217,0.007854
0.86,1.176502,0.196084,-9.836866,-0.010472,0.013963,0.004363
0.88,1.176502,0.196084,-9.836866,-0.000873,0.010472,0.010472
0.9,1.143822,0.163403,-9.836866,0.000873,0.015708,-0.01309
0.92,1.143822,0.196084,-9.771505,-0.006981,0.027053,0.005236
0.94,1.111141,0.196084,-9.869547,-0.014835,0.017453,-0.003491
0.96,1.143822,0.196084,-9.804186,0.002618,0.014835,0.01309
0.98,1.143822,0.196084,-9.771505,-0.014835,0.019199,0.010472
1,1.176502,0.196084,-9.706144,-0.015708,0.02618,0.01309
1.02,1.143822,0.196084,-9.804186,-0.013963,0.012217,0.021817
1.04,1.143822,0.228764,-9.771505,-0.030543,0.020944,0.006109
1.06,1.209183,0.261445,-9.771505,-0.028798,0.011345,0.01309
1.08,1.143822,0.228764,-9.771505,-0.014835,0.012217,0.001745
1.1,1.143822,0.261445,-9.771505,-0.002618,0.023562,0.004363
1.12,1.176502,0.228764,-9.804186,0.003491,0.018326,0.006109
1.14,1.143822,0.130722,-9.771505,-0.01309,0.010472,0.003491
1.16,1.176502,0.196084,-9.804186,-0.000873,0.014835,0.007854
1.18,1.209183,0.163403,-9.738825,-0.012217,0.017453,0.001745
1.2,1.209183,0.228764,-9.804186,-0.014835,0.018326,0.001745
1.22,1.176502,0.163403,-9.771505,-0.029671,0.015708,0.006109
1.24,1.143822,0.098042,-9.836866,-0.03927,0.017453,0.006981
1.26,1.143822,0.196084,-9.738825,-0.042761,0.020071,0.009599
1.28,1.176502,0.163403,-9.738825,-0.029671,0.020071,0.008727
1.3,1.176502,0.163403,-9.804186,-0.020071,0.012217,0.01309
1.32,1.176502,0.163403,-9.836866,-0.015708,0.006109,0.003491
1.34,1.209183,0.163403,-9.738825,-0.003491,0.020071,0.010472
1.36,1.143822,0.261445,-9.869547,-0.012217,0.02618,0.005236
1.38,1.143822,0.196084,-9.804186,-0.008727,0.020071,0.013963
1.4,1.07846,0.163403,-9.804186,-0.019199,0.024435,0.006109
1.42,1.143822,0.163403,-9.771505,-0.024435,0.022689,0.006981
1.44,1.143822,0.130722,-9.804186,-0.02618,0.017453,0.008727
1.46,1.176502,0.130722,-9.869547,-0.03927,0.012217,-0.000873
1.48,1.111141,0.196084,-9.804186,-0.027053,0.013963,0.021817
1.5,1.176502,0.196084,-9.836866,-0.002618,0.016581,-0.004363
1.52,1.143822,0.163403,-9.738825,0,0.018326,0.000873
1.54,1.176502,0.228764,-9.836866,-0.002618,0.024435,-0.000873
1.56,1.176502,0.163403,-9.771505,-0.016581,0.019199,0.003491
1.58,1.176502,0.163403,-9.869547,-0.005236,0.011345,0.008727
1.6,1.274544,0.228764,-9.771505,-0.003491,0.024435,0.003491
1.62,1.111141,0.228764,-9.804186,-0.019199,0.022689,-0.006981
1.64,1.274544,0.261445,-9.771505,-0.022689,0.01309,0.004363
1.66,1.111141,0.130722,-9.804186,-0.027925,0.008727,0.006109
1.68,1.143822,0.163403,-9.771505,-0.034034,0.020071,0.005236
1.7,1.143822,0.196084,-9.869547,-0.042761,0.017453,0.003491
1.72,1.111141,0.163403,-9.869547,-0.020944,0.013963,0.01309
1.74,1.143822,0.196084,-9.804186,-0.009599,0.019199,0.011345
1.76,1.176502,0.261445,-9.771505,-0.008727,0.027053,0.003491
1.78,1.143822,0.228764,-9.804186,0.002618,0.027053,0.014835
1.8,1.176502,0.196084,-9.836866,-0.001745,0.009599,0.009599
1.82,1.176502,0.163403,-9.836866,0.002618,0.020071,0.000873
1.84,1.143822,0.196084,-9.836866,-0.013963,0.02618,0.002618
1.86,1.143822,0.163403,-9.771505,-0.021817,0.008727,0
1.88,1.111141,0.228764,-9.771505,-0.027053,0.007854,0.000873
1.9,1.176502,0.228764,-9.804186,-0.029671,0.025307,0.006981
1.92,1.111141,0.130722,-9.836866,-0.022689,0.022689,0
1.94,1.143822,0.196084,-9.771505,-0.015708,0.017453,0.012217
1.96,1.111141,0.196084,-9.771505,-0.000873,0.033161,0.006109
1.98,1.176502,0.196084,-9.804186,-0.011345,0.018326,0.011345
2,1.176502,0.228764,-9.804186,0,0.020071,0.002618
2.02,1.176502,0.196084,-9.804186,-0.006109,0.022689,0.006109
2.04,1.176502,0.163403,-9.869547,-0.015708,0.012217,0.006109
2.06,1.07846,0.196084,-9.771505,-0.030543,0.022689,0.010472
2.08,1.209183,0.228764,-9.771505,-0.03927,0.020071,0.003491
2.1,1.143822,0.228764,-9.771505,-0.045379,0.01309,0.000873
2.12,1.111141,0.196084,-9.771505,-0.033161,0.009599,0.01309
2.14,1.143822,0.294126,-9.869547,-0.020071,0.012217,0.018326
2.16,1.111141,0.261445,-9.706144,0.006981,0.020944,0.016581
2.18,1.143822,0.228764,-9.771505,0.006981,0.011345,0.007854
2.2,1.209183,0.228764,-9.738825,0.014835,0.020944,0.001745
2.22,1.209183,0.163403,-9.771505,-0.000873,0.023562,0.009599
2.24,1.176502,0.228764,-9.869547,-0.006109,0.008727,0.000873
2.26,1.176502,0.163403,-9.771505,-0.010472,0.013963,0.004363
2.28,1.111141,0.228764,-9.804186,-0.014835,0.005236,0.002618
2.3,1.143822,0.196084,-9.706144,-0.023562,0.016581,-0.005236
2.32,1.176502,0.196084,-9.804186,-0.020071,0.016581,0.002618
2.34,1.176502,0.261445,-9.706144,-0.020944,0.020944,0.003491
2.36,1.176502,0.163403,-9.869547,-0.023562,0.002618,0.007854
2.38,1.111141,0.163403,-9.804186,-0.012217,0.021817,-0.002618
2.4,1.143822,0.196084,-9.836866,-0.015708,0.005236,0.002618
2.42,1.176502,0.196084,-9.738825,-0.005236,0.023562,0.01309
2.44,1.143822,0.130722,-9.836866,-0.002618,0.025307,0.000873
2.46,1.176502,0.196084,-9.804186,-0.025307,0.017453,-0.001745
2.48,1.143822,0.163403,-9.771505,-0.032289,0.008727,-0.004363
2.5,1.176502,0.196084,-9.836866,-0.034034,0.009599,-0.001745
2.52,1.209183,0.196084,-9.836866,-0.027053,0.018326,-0.011345
2.54,1.143822,0.196084,-9.771505,-0.010472,0.025307,-0.005236
2.56,1.209183,0.228764,-9.771505,-0.016581,0.020944,0.001745
2.58,1.07846,0.163403,-9.771505,-0.021817,0.021817,0.001745
2.6,1.143822,0.228764,-9.804186,-0.020944,0.012217,0.009599
2.62,1.176502,0.261445,-9.804186,-0.003491,0.019199,0.014835
2.64,1.143822,0.261445,-9.771505,-0.003491,0.030543,0.003491
2.66,1.209183,0.228764,-9.738825,-0.017453,0.021817,0.006981
2.68,1.176502,0.163403,-9.836866,-0.019199,0.002618,0.003491
2.7,1.176502,0.228764,-9.804186,-0.010472,0.019199,-0.000873
2.72,1.111141,0.163403,-9.771505,-0.037525,0.011345,0
2.74,1.143822,0.130722,-9.804186,-0.020944,0.023562,0.008727
2.76,1.176502,0.196084,-9.804186,-0.027053,0.015708,0.012217
2.78,1.111141,0.326806,-9.804186,-0.017453,0.023562,0.016581
2.8,1.143822,0.261445,-9.804186,-0.018326,0.019199,0.007854
2.82,1.176502,0.294126,-9.771505,-0.01309,0.020944,0.002618
2.84,1.176502,0.130722,-9.836866,-0.011345,0.020944,0.006981
2.86,1.209183,0.261445,-9.738825,-0.003491,0.017453,0.011345
2.88,1.176502,0.163403,-9.804186,-0.021817,0.016581,-0.003491
2.9,1.176502,0.130722,-9.771505,-0.018326,0.019199,-0.006109
2.92,1.143822,0.163403,-9.771505,-0.007854,0.015708,0.005236
2.94,1.176502,0.098042,-9.804186,-0.009599,0.023562,0.020944
2.96,1.143822,0.228764,-9.804186,-0.016581,0.012217,0.005236
2.98,1.176502,0.294126,-9.836866,-0.020944,0.022689,0.01309
3,1.176502,0.163403,-9.771505,-0.001745,0.028798,0.014835
3.02,1.176502,0.294126,-9.869547,0.002618,0.019199,0.012217
3.04,1.111141,0.261445,-9.804186,-0.001745,0.029671,0.006981
3.06,1.176502,0.196084,-9.738825,-0.005236,0.013963,0
3.08,1.143822,0.163403,-9.836866,-0.001745,0.028798,0.005236
3.1,1.143822,0.130722,-9.771505,-0.014835,0.011345,0.006981
3.12,1.176502,0.196084,-9.804186,-0.025307,0.009599,0
3.14,1.176502,0.294126,-9.738825,-0.006109,0.018326,0.007854
3.16,1.143822,0.196084,-9.804186,-0.022689,0.032289,0.01309
3.18,1.176502,0.196084,-9.706144,-0.029671,0.017453,0.014835
3.2,1.176502,0.228764,-9.738825,-0.021817,0.027053,0.002618
3.22,1.143822,0.261445,-9.771505,-0.011345,0.012217,0.010472
3.24,1.111141,0.228764,-9.902227,0,0.020944,0.010472
3.26,1.143822,0.261445,-9.804186,0.006981,0.009599,-0.004363
3.28,1.143822,0.228764,-9.738825,0.003491,0.031416,0.006109
3.3,1.111141,0.163403,-9.771505,-0.006109,0.022689,0.004363
3.32,1.176502,0.261445,-9.804186,-0.007854,0.017453,0.000873
3.34,1.209183,0.196084,-9.836866,-0.020071,0.01309,0.003491
3.36,1.176502,0.163403,-9.771505,-0.022689,0.013963,0.004363
3.38,1.176502,0.196084,-9.771505,-0.037525,0.006109,0.006981
3.4,1.176502,0.196084,-9.836866,-0.023562,0.011345,0.01309
3.42,1.143822,0.261445,-9.869547,-0.016581,0.024435,0.01309
3.44,1.111141,0.196084,-9.771505,-0.022689,0.020944,0.012217
3.46,1.143822,0.228764,-9.771505,-0.003491,0.019199,0.011345
3.48,1.176502,0.228764,-9.771505,-0.014835,0.015708,0.008727
3.5,1.176502,0.196084,-9.771505,-0.004363,0.016581,0.005236
3.52,1.111141,0.163403,-9.771505,-0.022689,0.011345,0.005236
3.54,1.176502,0.196084,-9.738825,-0.013963,0.01309,-0.004363
3.56,1.176502,0.228764,-9.771505,-0.028798,0.020944,0.009599
3.58,1.143822,0.228764,-9.771505,-0.030543,0.019199,0.015708
3.6,1.176502,0.228764,-9.869547,-0.020944,0.016581,0.007854
3.62,1.176502,0.228764,-9.804186,-0.019199,0.011345,0.001745
3.64,1.111141,0.261445,-9.869547,-0.019199,0.021817,0.010472
3.66,1.143822,0.261445,-9.836866,-0.02618,0.020071,0.008727
3.68,1.176502,0.228764,-9.738825,-0.006981,0.016581,0.008727
3.7,1.143822,0.228764,-9.738825,-0.009599,0.023562,0.009599
3.72,1.209183,0.261445,-9.771505,-0.006109,0.01309,0.003491
3.74,1.209183,0.261445,-9.804186,0.000873,0.015708,0.001745
3.76,1.209183,0.196084,-9.804186,-0.001745,0.018326,0.007854
3.78,1.143822,0.228764,-9.771505,-0.011345,0.020071,0.000873
3.8,1.07846,0.196084,-9.771505,-0.000873,0.014835,0.004363
3.82,1.176502,0.130722,-9.836866,-0.018326,0.019199,0.004363
3.84,1.176502,0.196084,-9.738825,-0.021817,0.016581,0.013963
3.86,1.111141,0.228764,-9.771505,-0.014835,0.020944,0.012217
3.88,1.176502,0.196084,-9.804186,-0.015708,0.020944,0.009599
3.9,1.176502,0.294126,-9.804186,-0.02618,0.020944,-0.001745
3.92,1.209183,0.228764,-9.771505,-0.015708,0.018326,0.004363
3.94,1.209183,0.196084,-9.869547,-0.013963,0.021817,0.005236
3.96,1.143822,0.228764,-9.771505,-0.030543,0.017453,0.010472
3.98,1.209183,0.228764,-9.738825,-0.012217,0.016581,0.001745
4,1.176502,0.261445,-9.771505,-0.021817,0.009599,0.003491
4.02,1.241864,0.163403,-9.771505,-0.01309,0.010472,0.001745
4.04,1.111141,0.261445,-9.771505,-0.016581,0.023562,0.007854
4.06,1.176502,0.228764,-9.771505,-0.020944,0.030543,-0.002618
4.08,1.143822,0.261445,-9.771505,0,0.016581,0.006981
4.1,1.176502,0.196084,-9.771505,-0.014835,0.024435,0.01309
4.12,1.176502,0.261445,-9.804186,-0.017453,0.020071,-0.003491
4.14,1.209183,0.196084,-9.836866,-0.02618,0.01309,0.006981
4.16,1.176502,0.228764,-9.804186,-0.014835,0.020071,0.013963
4.18,1.209183,0.130722,-9.836866,-0.024435,0.023562,0.012217
4.2,1.176502,0.228764,-9.836866,-0.030543,0.023562,0.009599
4.22,1.176502,0.228764,-9.706144,-0.023562,0.031416,0.005236
4.24,1.176502,0.228764,-9.771505,-0.019199,0.017453,0.01309
4.26,1.143822,0.261445,-9.771505,-0.01309,0.020071,0.012217
4.28,1.209183,0.196084,-9.738825,-0.007854,0.022689,0.006981
4.3,1.209183,0.228764,-9.771505,0.003491,0.023562,0.002618
4.32,1.209183,0.163403,-9.804186,-0.007854,0.025307,0.005236
4.34,1.143822,0.196084,-9.804186,-0.025307,0.020944,0.012217
4.36,1.111141,0.196084,-9.771505,-0.016581,0.016581,-0.004363
4.38,1.209183,0.163403,-9.738825,-0.031416,0.021817,0.006981
4.4,1.143822,0.196084,-9.771505,-0.034034,0.011345,0.002618
4.42,1.176502,0.228764,-9.804186,-0.022689,0.013963,0.010472
4.44,1.176502,0.163403,-9.771505,-0.016581,0.029671,0.014835
4.46,1.209183,0.228764,-9.804186,-0.006981,0.006109,-0.002618
4.48,1.143822,0.228764,-9.836866,0,0.027053,0.021817
4.5,1.209183,0.294126,-9.771505,-0.010472,0.020944,0.016581
4.52,1.209183,0.261445,-9.836866,-0.000873,0.022689,0.002618
4.54,1.143822,0.163403,-9.869547,0,0.013963,0.01309
4.56,1.143822,0.196084,-9.771505,-0.010472,0.014835,0.004363
4.58,1.143822,0.163403,-9.738825,-0.012217,0.020944,0.006109
4.6,1.176502,0.261445,-9.738825,-0.022689,0.016581,0.009599
4.62,1.176502,0.228764,-9.836866,-0.018326,0.027053,0.018326
4.64,1.209183,0.163403,-9.804186,-0.022689,0.016581,0.010472
4.66,1.143822,0.228764,-9.738825,-0.012217,0.02618,0.005236
4.68,1.209183,0.261445,-9.738825,-0.009599,0.024435,0.012217
4.7,1.209183,0.294126,-9.771505,-0.008727,0.014835,0.008727
4.72,1.176502,0.163403,-9.771505,-0.007854,0.023562,0.018326
4.74,1.143822,0.228764,-9.771505,-0.007854,0.014835,0.01309
4.76,1.07846,0.228764,-9.771505,0.000873,0.020071,0.008727
4.78,1.176502,0.163403,-9.836866,-0.013963,0.018326,0.001745
4.8,1.176502,0.228764,-9.836866,-0.021817,0.021817,0.010472
4.82,1.241864,0.130722,-9.804186,-0.022689,0.020944,0.010472
4.84,1.176502,0.163403,-9.738825,-0.019199,0.019199,0.013963
4.86,1.176502,0.228764,-9.836866,-0.027053,0.024435,0.006981
4.88,1.07846,0.261445,-9.804186,-0.020071,0.01309,0.010472
4.9,1.143822,0.228764,-9.771505,-0.005236,0.01309,0.004363
4.92,1.209183,0.196084,-9.738825,-0.022689,0.011345,0.006981
4.94,1.143822,0.196084,-9.804186,-0.020071,0.027925,0.002618
4.96,1.176502,0.163403,-9.804186,0.005236,0.017453,0.002618
4.98,1.241864,0.228764,-9.706144,-0.010472,0.024435,0.009599
5,1.209183,0.228764,-9.738825,-0.019199,0.008727,0.014835
5.02,1.176502,0.163403,-9.804186,-0.021817,0.016581,0.003491
5.04,1.111141,0.228764,-9.804186,-0.031416,0.016581,0.008727
5.06,1.209183,0.196084,-9.738825,-0.03927,0.020944,-0.000873
5.08,1.143822,0.163403,-9.804186,-0.017453,0.027053,0.001745
5.1,1.176502,0.163403,-9.771505,-0.011345,0.023562,-0.001745
5.12,1.143822,0.130722,-9.869547,-0.003491,0.019199,0.008727
5.14,1.143822,0.196084,-9.804186,-0.004363,0.015708,0.006981
5.16,1.143822,0.228764,-9.771505,-0.011345,0.027053,-0.007854
5.18,1.176502,0.261445,-9.771505,-0.003491,0.021817,0.006981
5.2,1.209183,0.196084,-9.836866,-0.005236,0.015708,-0.005236
5.22,1.176502,0.196084,-9.869547,-0.018326,0.015708,0.004363
5.24,1.143822,0.130722,-9.738825,-0.014835,0.011345,-0.000873
5.26,1.111141,0.196084,-9.771505,-0.017453,0.007854,0.000873
5.28,1.111141,0.228764,-9.836866,-0.020944,0.018326,0.006109
5.3,1.176502,0.228764,-9.804186,-0.034034,0.027053,0.012217
5.32,1.176502,0.163403,-9.836866,-0.021817,0.020071,0.007854
5.34,1.307225,0.228764,-9.738825,-0.019199,0.019199,0.006109
5.36,1.143822,0.196084,-9.771505,-0.020071,0.020071,0.006981
5.38,1.209183,0.196084,-9.836866,-0.025307,0.011345,0.019199
5.4,1.176502,0.261445,-9.804186,-0.008727,0.009599,0.000873
5.42,1.143822,0.196084,-9.836866,-0.012217,0.027925,0.007854
5.44,1.143822,0.130722,-9.804186,-0.013963,0.021817,-0.006109
5.46,1.176502,0.261445,-9.804186,-0.010472,0.020071,0.005236
5.48,1.209183,0.196084,-9.771505,-0.012217,0.025307,0.013963
5.5,1.176502,0.130722,-9.771505,-0.011345,0.023562,0.01309
5.52,1.176502,0.130722,-9.804186,-0.012217,0.02618,0.003491
5.54,1.111141,0.196084,-9.738825,-0.006981,0.023562,0.009599
5.56,1.143822,0.163403,-9.771505,-0.007854,0.018326,0.007854
5.58,1.209183,0.261445,-9.771505,-0.006981,0.015708,0.004363
5.6,1.176502,0.261445,-9.836866,-0.027925,0.013963,0.020944
5.62,1.176502,0.228764,-9.804186,-0.021817,0.020071,-0.004363
5.64,1.111141,0.228764,-9.869547,-0.02618,0.023562,-0.001745
5.66,1.176502,0.163403,-9.804186,-0.018326,0.010472,-0.001745
5.68,1.143822,0.228764,-9.771505,-0.02618,0.017453,0.008727
5.7,1.176502,0.228764,-9.804186,-0.020944,0.024435,0.003491
5.72,1.176502,0.196084,-9.804186,-0.019199,0.017453,-0.006981
5.74,1.209183,0.130722,-9.706144,-0.037525,0.027053,0.012217
5.76,1.274544,0.196084,-9.804186,-0.011345,0.023562,0.018326
5.78,1.209183,0.261445,-9.771505,-0.018326,0.015708,0.013963
5.8,1.143822,0.261445,-9.771505,-0.002618,0.020071,0
5.82,1.176502,0.196084,-9.738825,-0.015708,0.01309,0.007854
5.84,1.111141,0.294126,-9.836866,-0.008727,0.013963,0.005236
5.86,1.143822,0.196084,-9.771505,-0.021817,0.020944,0.004363
5.88,1.111141,0.261445,-9.771505,-0.01309,0.011345,0.005236
5.9,1.176502,0.196084,-9.771505,-0.027053,0.019199,0.000873
5.92,1.143822,0.228764,-9.738825,-0.024435,0.020071,-0.008727
5.94,1.143822,0.294126,-9.836866,-0.015708,0.023562,0.002618
5.96,1.176502,0.196084,-9.869547,-0.011345,0.025307,0.013963
5.98,1.176502,0.228764,-9.804186,-0.018326,0.018326,0.005236
6,1.111141,0.228764,-9.771505,-0.024435,0.008727,0.003491
6.02,1.176502,0.163403,-9.738825,-0.032289,0.017453,0.006109
6.04,1.143822,0.228764,-9.771505,-0.011345,0.013963,0.009599
6.06,1.143822,0.196084,-9.738825,-0.017453,0.013963,0.001745
6.08,1.209183,0.196084,-9.836866,-0.018326,0.021817,0.005236
6.1,1.209183,0.196084,-9.738825,-0.01309,0.013963,0.006109
6.12,1.209183,0.130722,-9.771505,-0.008727,0.018326,0.010472
6.14,1.176502,0.196084,-9.738825,-0.010472,0.023562,0.012217
6.16,1.143822,0.261445,-9.771505,-0.004363,0.019199,-0.000873
6.18,1.143822,0.196084,-9.869547,-0.010472,0.021817,0.015708
6.2,1.111141,0.196084,-9.804186,-0.023562,0.023562,0.005236
6.22,1.143822,0.228764,-9.804186,-0.018326,0.020071,0.002618
6.24,1.209183,0.130722,-9.771505,-0.004363,0.020071,0.015708
6.26,1.111141,0.228764,-9.804186,-0.013963,0.011345,0.012217
6.28,1.143822,0.196084,-9.804186,-0.02618,0.01309,-0.000873
6.3,1.209183,0.163403,-9.771505,-0.013963,0.015708,0.016581
6.32,1.176502,0.163403,-9.804186,-0.025307,0.027053,0.004363
6.34,1.209183,0.261445,-9.706144,-0.018326,0.022689,-0.006981
6.36,1.176502,0.163403,-9.771505,-0.015708,0.024435,0.021817
6.38,1.176502,0.196084,-9.836866,-0.009599,0.020071,0.005236
6.4,1.209183,0.196084,-9.738825,-0.01309,0.016581,-0.000873
6.42,1.176502,0.228764,-9.804186,-0.001745,0.013963,0.006981
6.44,1.143822,0.196084,-9.836866,-0.007854,0.025307,0.004363
6.46,1.143822,0.130722,-9.836866,-0.013963,0.021817,0.002618
6.48,1.209183,0.196084,-9.738825,-0.020071,0.017453,0.006109
6.5,1.176502,0.163403,-9.771505,-0.01309,0.020944,0.011345
6.52,1.176502,0.196084,-9.804186,-0.022689,0.027053,0.011345
6.54,1.143822,0.261445,-9.836866,-0.030543,0.017453,0.001745
6.56,1.209183,0.130722,-9.771505,-0.022689,0.027053,0.011345
6.58,1.209183,0.228764,-9.771505,-0.012217,0.012217,0.011345
6.6,1.209183,0.228764,-9.738825,-0.002618,0.020944,0.016581
6.62,1.111141,0.196084,-9.771505,0.012217,0.02618,0.009599
6.64,1.274544,0.196084,-9.804186,0.005236,0.025307,0.010472
6.66,1.111141,0.261445,-9.738825,-0.008727,0.016581,0.010472
6.68,1.143822,0.163403,-9.804186,-0.008727,0.019199,0.000873
6.7,1.111141,0.261445,-9.804186,-0.027925,0.010472,0.007854
6.72,1.111141,0.163403,-9.771505,-0.037525,0.02618,0.011345
6.74,1.176502,0.163403,-9.738825,-0.033161,0.015708,0.011345
6.76,1.07846,0.261445,-9.804186,-0.011345,0.021817,0
6.78,1.209183,0.228764,-9.738825,-0.020944,0.013963,0.012217
6.8,1.143822,0.228764,-9.771505,-0.010472,0.021817,-0.005236
6.82,1.176502,0.228764,-9.804186,-0.002618,0.018326,0.010472
6.84,1.111141,0.228764,-9.836866,-0.014835,0.023562,0.002618
6.86,1.209183,0.261445,-9.804186,-0.000873,0.017453,0.006981
6.88,1.143822,0.196084,-9.804186,-0.009599,0.004363,0.013963
6.9,1.143822,0.196084,-9.836866,-0.021817,0.016581,0.006981
6.92,1.176502,0.196084,-9.804186,-0.014835,0.017453,0.010472
6.94,1.176502,0.228764,-9.771505,-0.017453,0.012217,0.013963
6.96,1.176502,0.163403,-9.771505,-0.022689,0.011345,0.010472
6.98,1.176502,0.228764,-9.706144,-0.02618,0.018326,0.014835
7,1.143822,0.261445,-9.771505,-0.021817,0.021817,0.007854
7.02,1.176502,0.294126,-9.771505,-0.009599,0.016581,0.013963
7.04,1.176502,0.228764,-9.771505,-0.01309,0.020944,0.01309
7.06,1.176502,0.294126,-9.738825,-0.017453,0.018326,0.013963
7.08,1.143822,0.196084,-9.804186,-0.029671,0.018326,-0.000873
7.1,1.176502,0.228764,-9.804186,-0.010472,0.024435,0.001745
7.12,1.143822,0.228764,-9.804186,-0.01309,0.018326,0.006109
7.14,1.176502,0.163403,-9.771505,0.007854,0.010472,0.015708
7.16,1.209183,0.196084,-9.738825,-0.015708,0.021817,0.000873
7.18,1.209183,0.163403,-9.771505,-0.01309,0.023562,0.006109
7.2,1.143822,0.163403,-9.771505,-0.019199,0.02618,0.000873
7.22,1.111141,0.261445,-9.771505,-0.018326,0.009599,0.016581
7.24,1.176502,0.163403,-9.836866,-0.024435,0.012217,0.009599
7.26,1.176502,0.196084,-9.804186,-0.024435,0.024435,0.004363
7.28,1.209183,0.294126,-9.738825,-0.015708,0.02618,0.008727
7.3,1.143822,0.196084,-9.771505,-0.019199,0.019199,0.006109
7.32,1.241864,0.163403,-9.836866,-0.027925,0.023562,0.011345
7.34,1.143822,0.261445,-9.869547,-0.010472,0.020071,0.006109
7.36,1.143822,0.228764,-9.771505,-0.011345,0.019199,0.002618
7.38,1.274544,0.196084,-9.738825,-0.006981,0.027925,0.000873
7.4,1.176502,0.196084,-9.836866,-0.021817,0.015708,0.006981
7.42,1.143822,0.196084,-9.804186,-0.006109,0.016581,0.009599
7.44,1.143822,0.196084,-9.836866,-0.020944,0.022689,0.005236
7.46,1.209183,0.163403,-9.738825,-0.022689,0.019199,0.007854
7.48,1.176502,0.196084,-9.738825,-0.008727,0.022689,0.010472
7.5,1.176502,0.196084,-9.804186,-0.014835,0.027053,0.010472
7.52,1.111141,0.196084,-9.869547,-0.007854,0.027925,-0.000873
7.54,1.143822,0.163403,-9.804186,-0.020944,0.018326,0.007854
7.56,1.176502,0.228764,-9.771505,-0.020071,0.020944,0.009599
7.58,1.176502,0.163403,-9.836866,-0.008727,0.019199,0.003491
7.6,1.143822,0.163403,-9.804186,-0.000873,0.02618,0.014835
7.62,1.176502,0.228764,-9.804186,0.006109,0.022689,0.01309
7.64,1.111141,0.261445,-9.804186,-0.001745,0.027925,0.002618
7.66,1.111141,0.228764,-9.836866,-0.006981,0.023562,-0.002618
7.68,1.209183,0.196084,-9.771505,-0.008727,0.015708,0.003491
7.7,1.111141,0.196084,-9.804186,-0.011345,0.027925,0.006981
7.72,1.176502,0.228764,-9.804186,-0.015708,0.020944,0.012217
7.74,1.176502,0.163403,-9.804186,-0.017453,0.024435,-0.000873
7.76,1.143822,0.196084,-9.771505,-0.020944,0.004363,0.003491
7.78,1.143822,0.196084,-9.771505,-0.022689,0.018326,-0.007854
7.8,1.111141,0.196084,-9.804186,-0.023562,0.006981,0.002618
7.82,1.176502,0.196084,-9.836866,-0.02618,0.020071,0.013963
7.84,1.111141,0.130722,-9.804186,-0.028798,0.017453,0.014835
7.86,1.143822,0.228764,-9.706144,-0.01309,0.022689,0.013963
7.88,1.176502,0.228764,-9.771505,-0.008727,0.01309,0.003491
7.9,1.07846,0.228764,-9.804186,-0.010472,0.022689,0.020071
7.92,1.143822,0.228764,-9.804186,-0.008727,0.02618,0.006981
7.94,1.176502,0.261445,-9.804186,-0.009599,0.017453,0.004363
7.96,1.143822,0.228764,-9.836866,-0.021817,0.013963,0.006981
7.98,1.143822,0.163403,-9.771505,-0.020944,0.012217,0.012217
8,1.143822,0.228764,-9.771505,-0.019199,0.020071,0.003491
8.02,1.176502,0.196084,-9.836866,-0.029671,0.020944,0.014835
8.04,1.143822,0.294126,-9.738825,-0.020944,0.018326,0.002618
8.06,1.176502,0.196084,-9.738825,-0.030543,0.018326,0.009599
8.08,1.241864,0.261445,-9.738825,-0.01309,0.019199,0.008727
8.1,1.143822,0.196084,-9.804186,-0.006109,0.025307,0.015708
8.12,1.176502,0.228764,-9.738825,-0.01309,0.020944,0.009599
8.14,1.176502,0.196084,-9.869547,-0.004363,0.029671,0.015708
8.16,1.209183,0.196084,-9.738825,-0.009599,0.017453,-0.003491
8.18,1.209183,0.228764,-9.738825,-0.021817,0.028798,0.006109
8.2,1.111141,0.261445,-9.771505,-0.025307,0.018326,0.005236
8.22,1.209183,0.163403,-9.738825,-0.019199,0.025307,0.008727
8.24,1.07846,0.196084,-9.836866,-0.018326,0.025307,0.010472
8.26,1.176502,0.196084,-9.804186,-0.033161,0.013963,0.012217
8.28,1.143822,0.196084,-9.771505,-0.008727,0.021817,0.009599
8.3,1.143822,0.261445,-9.804186,-0.005236,0.01309,0.009599
8.32,1.176502,0.228764,-9.738825,-0.003491,0.003491,0.009599
8.34,1.111141,0.326806,-9.804186,-0.007854,0.018326,0
8.36,1.176502,0.163403,-9.738825,-0.013963,0.012217,0.010472
8.38,1.176502,0.228764,-9.738825,-0.014835,0.023562,0.010472
8.4,1.143822,0.196084,-9.836866,-0.020944,0.013963,0.001745
8.42,1.143822,0.196084,-9.771505,-0.008727,0.018326,0.016581
8.44,1.176502,0.196084,-9.771505,-0.006109,0.025307,0.010472
8.46,1.143822,0.228764,-9.771505,-0.010472,0.022689,-0.004363
8.48,1.143822,0.196084,-9.706144,-0.020071,0.020944,0.001745
8.5,1.143822,0.163403,-9.706144,-0.013963,0.020071,0.004363
8.52,1.209183,0.196084,-9.738825,-0.017453,0.017453,0.007854
8.54,1.143822,0.196084,-9.738825,-0.010472,0.015708,0.008727
8.56,1.209183,0.196084,-9.771505,-0.019199,0.023562,0.003491
8.58,1.176502,0.228764,-9.738825,-0.009599,0.028798,0.011345
8.6,1.143822,0.196084,-9.804186,-0.002618,0.017453,0.004363
8.62,1.176502,0.228764,-9.836866,0.008727,0.025307,0.007854
8.64,1.209183,0.196084,-9.771505,-0.020071,0.019199,0.006109
8.66,1.143822,0.130722,-9.771505,-0.021817,0.021817,-0.002618
8.68,1.209183,0.196084,-9.804186,-0.020944,0.012217,0.000873
8.7,1.176502,0.130722,-9.771505,-0.016581,0.011345,0.008727
8.72,1.111141,0.196084,-9.771505,-0.024435,0.019199,0.000873
8.74,1.209183,0.326806,-9.869547,-0.010472,0.017453,-0.002618
8.76,1.143822,0.196084,-9.804186,-0.019199,0.024435,-0.002618
8.78,1.176502,0.163403,-9.804186,-0.009599,0.02618,0.012217
8.8,1.111141,0.228764,-9.804186,-0.01309,0.02618,-0.001745
8.82,1.176502,0.196084,-9.738825,-0.022689,0.017453,0.005236
8.84,1.176502,0.163403,-9.771505,-0.01309,0.022689,0.004363
8.86,1.111141,0.196084,-9.771505,-0.015708,0.023562,-0.006981
8.88,1.176502,0.228764,-9.771505,-0.014835,0.018326,0.020071
8.9,1.209183,0.130722,-9.706144,-0.009599,0.010472,0.001745
8.92,1.176502,0.196084,-9.804186,-0.022689,0.021817,0.011345
8.94,1.143822,0.261445,-9.836866,-0.020071,0.017453,0.004363
8.96,1.143822,0.196084,-9.804186,-0.013963,0.011345,0.001745
8.98,1.209183,0.196084,-9.771505,-0.033161,0.015708,0.011345
9,1.111141,0.228764,-9.771505,-0.022689,0.017453,0.014835
9.02,1.176502,0.228764,-9.771505,-0.027925,0.019199,0.000873
9.04,1.04578,0.196084,-9.804186,-0.029671,0.023562,0.013963
9.06,1.143822,0.228764,-9.738825,-0.013963,0.02618,0.011345
9.08,1.143822,0.196084,-9.771505,-0.014835,0.011345,0.002618
9.1,1.209183,0.228764,-9.706144,-0.006109,0.024435,0.003491
9.12,1.143822,0.163403,-9.804186,-0.021817,0.014835,-0.005236
9.14,1.176502,0.130722,-9.771505,-0.015708,0.018326,0.002618
9.16,1.176502,0.196084,-9.804186,-0.016581,0.018326,0.008727
9.18,1.143822,0.196084,-9.738825,-0.016581,0.028798,0.003491
9.2,1.143822,0.196084,-9.771505,-0.006981,0.006981,0.013963
9.22,1.143822,0.163403,-9.836866,-0.01309,0.014835,0.009599
9.24,1.143822,0.163403,-9.869547,-0.020944,0.021817,0.005236
9.26,1.176502,0.228764,-9.771505,-0.016581,0.022689,0.017453
9.28,1.111141,0.228764,-9.771505,-0.013963,0.024435,0.005236
9.3,1.143822,0.261445,-9.804186,-0.016581,0.018326,0.006981
9.32,1.143822,0.163403,-9.804186,-0.012217,0.017453,0
9.34,1.176502,0.196084,-9.836866,-0.021817,0.008727,0.010472
9.36,1.176502,0.163403,-9.804186,-0.010472,0.024435,0.019199
9.38,1.176502,0.196084,-9.706144,-0.014835,0.015708,-0.008727
9.4,1.143822,0.228764,-9.771505,-0.025307,0.016581,0.01309
9.42,1.176502,0.261445,-9.738825,-0.027053,0.013963,0.012217
9.44,1.143822,0.228764,-9.771505,-0.040143,0.018326,0.001745
9.46,1.111141,0.228764,-9.771505,-0.032289,0.009599,0.012217
9.48,1.176502,0.228764,-9.738825,-0.022689,0.009599,-0.002618
9.5,1.176502,0.163403,-9.771505,-0.007854,0.023562,0.014835
9.52,1.209183,0.228764,-9.738825,-0.008727,0.020944,0.010472
9.54,1.241864,0.228764,-9.771505,-0.001745,0.011345,-0.002618
9.56,1.209183,0.196084,-9.738825,0.000873,0.023562,0.000873
9.58,1.241864,0.196084,-9.738825,-0.013963,0.021817,0.002618
9.6,1.111141,0.228764,-9.804186,-0.008727,0.006109,0.007854
9.62,1.111141,0.196084,-9.836866,-0.013963,0.022689,0.006109
9.64,1.176502,0.228764,-9.771505,-0.017453,0.019199,0.007854
9.66,1.143822,0.228764,-9.771505,-0.025307,0.019199,0
9.68,1.176502,0.294126,-9.771505,-0.010472,0.005236,0.006981
9.7,1.209183,0.228764,-9.804186,-0.02618,0.015708,0.011345
9.72,1.143822,0.228764,-9.771505,-0.027925,0.020071,0.009599
9.74,1.241864,0.228764,-9.836866,-0.02618,0.025307,0.012217
9.76,1.209183,0.196084,-9.771505,-0.020944,0.016581,-0.006109
9.78,1.143822,0.228764,-9.836866,-0.007854,0.01309,-0.002618
9.8,1.176502,0.196084,-9.804186,0.001745,0.012217,0.017453
9.82,1.07846,0.196084,-9.771505,0.004363,0.015708,0.004363
9.84,1.241864,0.196084,-9.706144,-0.007854,0.020071,0.005236
9.86,1.176502,0.196084,-9.836866,-0.017453,0.027925,0
9.88,1.143822,0.196084,-9.804186,-0.023562,0.012217,0.013963
9.9,1.209183,0.196084,-9.771505,-0.020944,0.016581,0.010472
9.92,1.07846,0.228764,-9.771505,-0.031416,0.032289,0.005236
9.94,1.143822,0.228764,-9.738825,-0.029671,0.01309,0.003491
9.96,1.176502,0.228764,-9.771505,-0.028798,0.022689,0.013963
9.98,1.209183,0.196084,-9.771505,-0.008727,0.016581,0.007854
10,1.143822,0.196084,-9.804186,-0.006109,0.017453,0.010472
10.02,1.176502,0.196084,-9.771505,-0.003491,0.010472,0.009599
10.04,1.176502,0.261445,-9.706144,-0.017453,0.01309,0.001745
10.06,1.143822,0.163403,-9.804186,-0.019199,0.019199,-0.003491
10.08,1.176502,0.196084,-9.771505,-0.025307,0.019199,0
10.1,1.176502,0.228764,-9.771505,-0.018326,0.007854,0.01309
10.12,1.143822,0.163403,-9.804186,-0.029671,0.008727,0.016581
10.14,1.143822,0.196084,-9.738825,-0.018326,0.015708,0.012217
10.16,1.176502,0.196084,-9.804186,-0.018326,0.025307,0.014835
10.18,1.176502,0.130722,-9.804186,-0.038397,0.02618,0.018326
10.2,1.143822,0.196084,-9.836866,-0.019199,0.022689,0.008727
10.22,1.209183,0.228764,-9.804186,-0.013963,0.020944,0.008727
10.24,1.209183,0.261445,-9.771505,-0.020071,0.022689,-0.000873
10.26,1.176502,0.163403,-9.738825,-0.018326,0.016581,0.002618
10.28,1.143822,0.196084,-9.771505,-0.019199,0.02618,-0.003491
10.3,1.176502,0.163403,-9.804186,-0.01309,0.012217,0
10.32,1.143822,0.163403,-9.804186,-0.012217,0.018326,0.005236
10.34,1.143822,0.163403,-9.771505,-0.006981,0.01309,0.011345
10.36,1.176502,0.130722,-9.706144,-0.023562,0.019199,0.009599
10.38,1.143822,0.228764,-9.836866,-0.018326,0.01309,0.006981
10.4,1.143822,0.163403,-9.771505,-0.020944,0.012217,0.017453
10.42,1.176502,0.261445,-9.771505,-0.019199,0.020071,0.015708
10.44,1.176502,0.196084,-9.738825,-0.015708,0.024435,0.002618
10.46,1.241864,0.196084,-9.836866,-0.016581,0.025307,0.016581
10.48,1.143822,0.196084,-9.804186,-0.01309,0.023562,0.012217
10.5,1.176502,0.261445,-9.706144,-0.018326,0.024435,0.008727
10.52,1.04578,0.196084,-9.804186,-0.008727,0.006981,0.01309
10.54,1.143822,0.196084,-9.836866,-0.012217,0.003491,-0.004363
10.56,1.111141,0.261445,-9.836866,-0.021817,0.021817,0.009599
10.58,1.143822,0.261445,-9.771505,-0.015708,0.019199,0.000873
10.6,1.143822,0.228764,-9.804186,-0.006109,0.007854,0.001745
10.62,1.143822,0.228764,-9.836866,-0.008727,0.016581,0
10.64,1.143822,0.228764,-9.804186,-0.011345,0.011345,0.014835
10.66,1.209183,0.196084,-9.804186,-0.010472,0.027053,0.014835
10.68,1.143822,0.228764,-9.804186,0.008727,0.019199,0.007854
10.7,1.176502,0.163403,-9.771505,-0.021817,0.020071,0.005236
10.72,1.176502,0.228764,-9.804186,-0.016581,0.02618,-0.005236
10.74,1.143822,0.228764,-9.706144,-0.011345,0.006109,0.008727
10.76,1.209183,-0.065361,-9.869547,-0.008727,0.019199,0.006981
10.78,0.555571,-1.307225,-9.902227,-0.024435,0.020071,0.001745
10.8,1.307225,0.947738,-9.836866,-0.030543,0.023562,0.006109
10.82,0.915057,0.490209,-9.804186,-0.054105,0.014835,0.009599
10.84,1.339905,1.862795,-9.706144,-0.040143,0.029671,0.006981
10.86,1.666712,2.549088,-9.542741,-0.035779,0.030543,0.006109
10.88,1.274544,0.686293,-9.869547,-0.027053,0.018326,0.001745
10.9,0.784335,-0.751654,-10.00027,-0.021817,0.024435,0.020944
10.92,1.274544,0.588251,-9.706144,0.002618,0.027925,0.006109
10.94,1.307225,0,-9.804186,0.020944,0.018326,0.009599
10.96,0.817016,-0.424848,-10.130992,0.008727,0.015708,-0.002618
10.98,1.013099,-0.424848,-10.03295,0.008727,0.020944,0.010472
11,1.111141,0,-9.771505,-0.005236,0.004363,-0.003491
11.02,1.307225,0.686293,-9.967589,-0.018326,0.020944,-0.007854
11.04,1.111141,0.882377,-9.869547,-0.031416,0.016581,0.007854
11.06,1.111141,0.620932,-9.771505,-0.043633,0.016581,0.004363
11.08,0.980419,-0.196084,-9.608102,-0.034907,0.01309,0.003491
11.1,1.07846,0.032681,-9.706144,-0.022689,0.021817,0.017453
11.12,1.241864,-0.163403,-9.51006,-0.006109,0.011345,0.008727
11.14,1.04578,-0.457529,-9.444699,-0.007854,0.023562,0.011345
11.16,1.013099,0.032681,-9.836866,0.003491,0.017453,0.014835
11.18,1.04578,0.228764,-9.804186,0.022689,0.023562,0.006109
11.2,1.241864,0.163403,-9.967589,0.016581,0.014835,0.004363
11.22,1.241864,0.653612,-9.608102,-0.005236,0.017453,0.011345
11.24,1.503309,0.588251,-9.608102,-0.018326,0.013963,0.003491
11.26,1.013099,0.261445,-9.738825,-0.047124,0.016581,0.015708
11.28,1.013099,0.163403,-9.640783,-0.030543,0.020944,0.002618
11.3,1.241864,0.228764,-9.771505,-0.040143,0.019199,0.007854
11.32,1.04578,-0.228764,-9.706144,-0.014835,0.015708,-0.002618
11.34,1.274544,0.098042,-9.869547,-0.010472,0.029671,0.007854
11.36,1.013099,0.294126,-9.608102,0.000873,0.020944,0.013963
11.38,1.437947,0.555571,-9.542741,-0.010472,0.01309,0.01309
11.4,1.307225,0.653612,-9.640783,0.014835,0.020071,0.005236
11.42,1.339905,0.620932,-9.836866,-0.006109,0.011345,0.001745
11.44,1.307225,0.52289,-9.673464,-0.002618,0.029671,-0.011345
11.46,1.176502,0.490209,-9.804186,-0.010472,0.007854,0.004363
11.48,1.470628,0.718974,-9.379338,-0.036652,0.019199,-0.004363
11.5,1.241864,-0.882377,-9.738825,-0.054105,0.012217,0.006981
11.52,0.098042,0.294126,-11.111411,-0.048869,0.027053,0.009599
11.54,1.307225,0.915057,-9.542741,-0.06545,0.017453,0.006981
11.56,2.516408,0,-8.4316,-0.058469,0,0.016581
11.58,5.228899,9.542741,-6.241998,-0.028798,0,0.031416
11.6,6.30736,9.902227,-4.281161,0.018326,0.018326,0.029671
11.62,1.274544,9.444699,-8.627684,0.03927,0.018326,0.02618
11.64,1.535989,-8.98717,-12.12451,0.05236,0.029671,0.016581
11.66,2.189601,-0.261445,-9.248615,0.037525,0.029671,0.001745
11.68,1.993518,-5.294261,-10.948008,0.003491,0.027925,-0.021817
11.7,0.326806,3.921674,-10.261715,0.003491,0.012217,-0.017453
11.72,2.12424,-2.058879,-10.00027,-0.024435,0.017453,-0.027925
11.74,1.732073,-1.830115,-9.575421,-0.074176,-0.005236,-0.021817
11.76,1.241864,-0.424848,-9.738825,-0.067195,0.024435,-0.018326
11.78,1.339905,-4.444564,-9.640783,-0.075049,0.008727,-0.006109
11.8,1.176502,-3.071978,-9.836866,-0.010472,0.022689,0.01309
11.82,1.437947,0.196084,-9.869547,-0.005236,0.015708,0.004363
11.84,1.405267,3.366104,-8.562323,0.048869,0.01309,0.024435
11.86,1.56867,-1.07846,-10.490479,0.03927,0.032289,0.010472
11.88,0.784335,-1.176502,-10.065631,0.036652,0.01309,0.028798
11.9,1.862795,0.718974,-9.934909,-0.002618,0.034907,0.020071
11.92,0.686293,0.424848,-9.608102,-0.020071,0.01309,0.005236
11.94,2.09156,1.372586,-8.366239,-0.050615,0.01309,0.009599
11.96,1.60135,0.555571,-10.130992,-0.068068,0.016581,-0.018326
11.98,1.503309,-0.915057,-9.379338,-0.063705,0.000873,-0.023562
12,1.470628,0.130722,-10.621202,-0.067195,0.01309,-0.019199
12.02,1.666712,-0.098042,-8.627684,-0.044506,0.015708,-0.023562
12.04,1.437947,-0.653612,-8.562323,-0.010472,0.017453,-0.006109
12.06,1.830115,2.679811,-10.55584,0.027925,0.041015,-0.005236
12.08,1.60135,-1.209183,-10.55584,0.030543,0.041888,-0.000873
12.1,1.928157,-0.490209,-8.823768,0.010472,0.009599,0.019199
12.12,1.699392,1.60135,-9.47738,0.007854,0.013963,0.004363
12.14,1.60135,-0.065361,-10.425117,-0.006981,0.032289,-0.007854
12.16,1.470628,-1.535989,-9.575421,-0.048869,0.023562,-0.012217
12.18,2.156921,1.960837,-8.95449,-0.071558,0.018326,-0.006109
12.2,2.058879,2.418366,-10.425117,-0.062832,0.022689,-0.025307
12.22,1.732073,-0.392167,-9.869547,-0.049742,0.003491,-0.023562
12.24,1.732073,-0.686293,-9.117893,-0.021817,0.005236,-0.023562
12.26,1.797434,0.490209,-9.47738,0.001745,0.009599,-0.033161
12.28,2.058879,0.620932,-10.588521,0.044506,0.021817,-0.034034
12.3,1.699392,-1.111141,-8.758406,0.059341,0.004363,-0.041888
12.32,2.09156,0.032681,-9.183254,0.028798,-0.010472,-0.035779
12.34,1.895476,0.980419,-10.196354,0.038397,0.001745,-0.041015
12.36,1.56867,-0.718974,-10.52316,0.006981,0.020944,-0.045379
12.38,1.732073,0.065361,-9.47738,-0.029671,0.018326,-0.036652
12.4,1.732073,0.555571,-9.608102,-0.047124,0.030543,-0.033161
12.42,1.535989,0.947738,-10.196354,-0.057596,0.02618,-0.042761
12.44,1.60135,-0.555571,-8.725725,-0.051487,-0.006109,-0.032289
12.46,1.56867,0.424848,-9.804186,-0.032289,0.027053,-0.030543
12.48,1.372586,1.470628,-9.215935,-0.018326,0.028798,-0.033161
12.5,1.307225,0.915057,-9.934909,0.010472,0.025307,-0.033161
12.52,1.666712,1.470628,-9.738825,0.009599,-0.000873,-0.047997
12.54,1.339905,1.928157,-8.627684,0.034907,-0.013963,-0.047124
12.56,1.666712,0.784335,-10.261715,0.014835,-0.006109,-0.056723
12.58,1.830115,-0.163403,-10.457798,0.021817,0.020071,-0.058469
12.6,2.026198,0.817016,-9.608102,-0.005236,0.019199,-0.06545
12.62,0.326806,0.392167,-10.03295,0.017453,0.016581,-0.073304
12.64,2.64713,0.686293,-9.412019,-0.020071,-0.016581,-0.068068
12.66,1.04578,-4.085077,-9.608102,0.001745,0.023562,-0.071558
12.68,0.228764,-3.529507,-10.163672,-0.001745,0.010472,-0.069813
12.7,0.163403,-5.490344,-10.00027,-0.025307,0.020071,-0.084648
12.72,2.549088,-0.424848,-9.47738,-0.017453,-0.000873,-0.092502
12.74,2.156921,5.424983,-9.771505,-0.020944,-0.016581,-0.090757
12.76,-0.196084,-5.653747,-10.425117,-0.018326,0.02618,-0.089884
12.78,1.764753,2.908575,-9.967589,-0.021817,0.010472,-0.089012
12.8,2.451046,1.862795,-8.268197,-0.010472,0.013963,-0.099484
12.82,-1.04578,-5.359622,-11.60162,-0.013963,0.02618,-0.110828
12.84,0,-0.098042,-10.915327,0.030543,0.02618,-0.116937
12.86,2.451046,5.490344,-8.856448,0.03927,0.016581,-0.118682
12.88,3.627549,6.078595,-8.333558,0.040143,0.010472,-0.1309
12.9,3.104659,4.313842,-7.255098,0.072431,0.020071,-0.138754
12.92,1.830115,0.130722,-8.823768,0.045379,-0.001745,-0.140499
12.94,1.830115,-2.418366,-10.392437,0.015708,-0.019199,-0.141372
12.96,1.209183,-1.503309,-9.706144,0.009599,-0.013963,-0.137008
12.98,1.04578,-2.254963,-9.150574,-0.016581,0.027053,-0.149226
13,2.058879,-2.320324,-9.052532,-0.034907,0.040143,-0.155334
13.02,2.026198,0.359487,-8.856448,-0.063705,0.014835,-0.16057
13.04,2.418366,2.189601,-9.085213,-0.045379,-0.006109,-0.149226
13.06,3.562188,4.640648,-8.595003,-0.01309,-0.023562,-0.150971
13.08,3.790952,7.222417,-6.764888,0.027925,0.000873,-0.142244
13.1,3.333423,5.751789,-8.46428,0.038397,0.020071,-0.171042
13.12,1.503309,4.2158,-9.542741,0.053233,0.020944,-0.164061
13.14,0.52289,-0.817016,-11.307494,0.068941,0.008727,-0.167552
13.16,-0.653612,-3.69291,-11.60162,0.048869,0.007854,-0.17366
13.18,-0.980419,-4.836732,-10.457798,0.028798,0.029671,-0.176278
13.2,0.098042,-2.810533,-9.47738,-0.012217,0.02618,-0.181514
13.22,2.385685,1.993518,-7.483862,-0.035779,0.007854,-0.17017
13.24,4.248481,7.974072,-6.699527,-0.080285,0.002618,-0.180642
13.26,3.562188,6.960972,-8.693045,-0.08203,-0.004363,-0.178024
13.28,2.320324,4.2158,-10.817286,-0.090757,0.015708,-0.185005
13.3,-0.751654,-4.509925,-11.863065,-0.068068,0.030543,-0.174533
13.32,-1.372586,-6.274679,-12.320594,-0.035779,0.02618,-0.164934
13.34,-1.993518,-7.810668,-11.732343,0.011345,0.034034,-0.171042
13.36,-2.254963,-8.137474,-12.255233,0.035779,0.046251,-0.171915
13.38,0.52289,3.431465,-9.869547,0.043633,0.027925,-0.174533
13.4,-0.653612,4.085077,-10.03295,0.041015,-0.010472,-0.17017
13.42,3.496826,5.196218,-7.712626,0.071558,0.010472,-0.177151
13.44,1.176502,7.059014,-7.549223,0.027053,0.024435,-0.187623
13.46,0.490209,3.987036,-8.725725,0.034907,0.047997,-0.211185
13.48,1.895476,8.95449,-6.895611,-0.007854,0.012217,-0.194604
13.5,1.993518,-2.581769,-9.738825,-0.017453,0.012217,-0.201586
13.52,1.307225,-2.12424,-11.046049,-0.005236,0.001745,-0.200713
13.54,1.830115,1.928157,-7.745307,-0.024435,0.012217,-0.210312
13.56,1.176502,-3.366104,-10.784605,-0.003491,-0.004363,-0.214676
13.58,1.470628,3.888994,-9.215935,0.000873,-0.000873,-0.207694
13.6,0.980419,2.875895,-10.588521,0.022689,0.031416,-0.197222
13.62,1.666712,-4.836732,-10.00027,0.005236,0.047997,-0.212058
13.64,1.437947,4.019716,-8.758406,0.042761,0.025307,-0.22602
13.66,1.339905,3.987036,-10.719243,0.020944,0.020071,-0.219911
13.68,1.830115,-3.431465,-10.359756,0.030543,-0.019199,-0.211185
13.7,1.176502,1.176502,-8.595003,0.004363,0.006109,-0.237365
13.72,1.013099,0.620932,-8.202836,0.010472,0.016581,-0.22602
13.74,1.111141,-0.261445,-9.412019,-0.056723,0.057596,-0.235619
13.76,1.470628,-0.751654,-8.95449,-0.051487,0.031416,-0.241728
13.78,1.895476,-2.712492,-10.686563,-0.045379,0.019199,-0.243473
13.8,1.732073,0.196084,-10.098311,0.004363,-0.027053,-0.240855
13.82,1.993518,4.019716,-10.229034,0.041888,-0.002618,-0.2522
13.84,1.797434,-2.385685,-9.673464,0.053233,0.010472,-0.253945
13.86,0.751654,-1.372586,-10.098311,0.084648,0.033161,-0.2522
13.88,1.274544,0.718974,-8.4316,0.076794,0.040143,-0.269653
13.9,1.60135,1.339905,-8.496962,0.076794,0.028798,-0.267908
13.92,1.209183,-1.111141,-9.967589,0.041888,-0.000873,-0.279253
13.94,1.60135,0.032681,-9.346658,0.006981,-0.009599,-0.270526
13.96,1.307225,-0.065361,-9.836866,-0.027053,0.012217,-0.294961
13.98,1.372586,-0.032681,-9.47738,-0.010472,0.015708,-0.292343
14,1.634031,0.947738,-10.686563,-0.02618,0.013963,-0.308923
14.02,1.274544,1.56867,-10.163672,0.004363,0.044506,-0.301069
14.04,1.111141,-0.326806,-9.248615,0.021817,0.040143,-0.298451
14.06,1.634031,1.764753,-8.496962,0.053233,0.038397,-0.321141
14.08,1.111141,-3.627549,-8.627684,0.062832,0.020071,-0.324631
14.1,1.732073,2.287643,-10.294395,0.083776,0.018326,-0.341212
14.12,1.56867,-0.163403,-11.666982,0.10472,0.002618,-0.349939
14.14,1.437947,0.359487,-9.379338,0.06545,-0.006109,-0.34383
14.16,1.372586,0.52289,-9.085213,0.037525,0.007854,-0.36041
14.18,1.04578,-1.60135,-8.889129,0.036652,0.016581,-0.345575
14.2,1.830115,2.026198,-9.215935,-0.02618,0.036652,-0.376118
14.22,1.764753,1.732073,-10.359756,-0.011345,0.030543,-0.376991
14.24,1.699392,1.372586,-11.176772,-0.025307,0.009599,-0.353429
14.26,2.320324,-2.287643,-10.098311,-0.017453,-0.004363,-0.363028
14.28,1.470628,0.751654,-8.333558,0.049742,0.000873,-0.3735
14.3,1.535989,1.666712,-9.738825,0.040143,0.041888,-0.379609
14.32,2.12424,2.189601,-11.405537,0.041888,0.063705,-0.368264
14.34,2.320324,5.196218,-9.869547,0.047124,0.030543,-0.381354
14.36,1.07846,-1.437947,-9.183254,0.041015,-0.004363,-0.379609
14.38,1.470628,1.928157,-9.575421,0.066323,-0.015708,-0.377864
14.4,1.470628,-0.620932,-9.934909,0.062832,0.030543,-0.397935
14.42,1.503309,-1.013099,-9.738825,0.045379,0.058469,-0.400553
14.44,1.535989,1.60135,-9.869547,0.043633,0.020071,-0.402298
14.46,1.405267,-0.424848,-8.137474,0.042761,-0.023562,-0.403171
14.48,2.254963,1.830115,-9.542741,0.016581,-0.017453,-0.401426
14.5,0.882377,-0.065361,-10.00027,0.006109,0.017453,-0.413643
14.52,2.418366,-0.032681,-10.490479,-0.011345,0.037525,-0.400553
14.54,0.588251,0.588251,-11.242133,0.024435,0.034907,-0.418006
14.56,1.960837,1.307225,-8.921809,0.025307,0.007854,-0.407534
14.58,1.535989,-0.653612,-9.085213,0.070686,0.030543,-0.421497
14.6,1.699392,2.843214,-8.823768,0.082903,0.007854,-0.416261
14.62,2.156921,-0.686293,-9.51006,0.085521,0.006981,-0.42237
14.64,1.634031,-0.130722,-10.196354,0.118682,0,-0.444186
14.66,1.176502,0.555571,-9.804186,0.086394,-0.006981,-0.443314
14.68,1.666712,0.032681,-11.046049,0.057596,0.027925,-0.458149
14.7,0.915057,-2.254963,-9.934909,0.015708,0.006981,-0.456404
14.72,2.058879,0.490209,-9.215935,0.013963,0.036652,-0.458149
14.74,1.241864,-1.699392,-9.248615,0.02618,0.031416,-0.462512
14.76,1.699392,-0.947738,-8.889129,0.038397,0.019199,-0.453786
14.78,0.980419,0.588251,-10.229034,0.057596,0.02618,-0.477348
14.8,1.764753,0.555571,-10.130992,0.058469,0.000873,-0.454658
14.82,2.156921,0.392167,-11.046049,0.055851,0.033161,-0.449422
14.84,1.241864,-0.392167,-10.621202,0.061959,0.031416,-0.47822
14.86,1.862795,1.960837,-9.379338,0.077667,0.043633,-0.46164
14.88,2.189601,4.575287,-9.085213,0.054105,0.075049,-0.496546
14.9,1.503309,0.424848,-8.006752,-0.013963,0.063705,-0.489565
14.92,0.653612,1.535989,-8.725725,0.035779,0.01309,-0.496546
14.94,0.784335,-2.353005,-9.346658,0.001745,-0.038397,-0.494801
14.96,1.274544,1.241864,-10.55584,0.032289,0.003491,-0.495674
14.98,1.339905,0.52289,-10.653882,0.072431,0.05236,-0.506145
15,1.372586,-1.209183,-9.771505,0.109956,0.063705,-0.510509
15.02,1.176502,2.320324,-8.856448,0.137881,0.041015,-0.520108
15.04,1.535989,-2.156921,-9.51006,0.1309,0.009599,-0.529707
15.06,1.56867,-1.307225,-10.359756,0.113446,0.007854,-0.540179
15.08,1.176502,-1.862795,-10.229034,0.070686,-0.005236,-0.557633
15.1,1.04578,-0.130722,-10.130992,0.055851,0.028798,-0.549779
15.12,1.143822,-3.13734,-9.51006,0.028798,0.046251,-0.548906
15.14,1.143822,-5.098177,-10.261715,-0.002618,0.056723,-0.550651
15.16,1.111141,-4.542606,-9.738825,-0.011345,0.050615,-0.55676
15.18,1.437947,-3.921674,-9.313976,0.034907,-0.001745,-0.541925
15.2,1.634031,1.04578,-8.529642,0.043633,0.002618,-0.561123
15.22,1.176502,3.17002,-9.248615,0.06545,0.027925,-0.563741
15.24,0.620932,-1.339905,-10.882647,0.072431,0.048869,-0.567232
15.26,1.241864,-6.30736,-10.261715,0.080285,0.047124,-0.553269
15.28,1.372586,0.359487,-7.549223,0.045379,0.01309,-0.564614
15.3,1.04578,3.17002,-8.823768,0.070686,-0.003491,-0.55676
15.32,2.058879,-1.176502,-10.294395,0.049742,0.007854,-0.566359
15.34,1.143822,0.817016,-10.425117,0.089884,0.041888,-0.555015
15.36,1.699392,1.764753,-10.980688,0.049742,0.047997,-0.55676
15.38,1.56867,0.751654,-9.771505,0.096866,0.041015,-0.578577
15.4,1.339905,-3.627549,-9.673464,0.074176,0.018326,-0.552397
15.42,0.849696,-0.424848,-9.313976,0.075049,0.024435,-0.565487
15.44,0.326806,0.817016,-9.281296,0.068068,-0.002618,-0.558505
15.46,1.241864,-5.424983,-10.03295,0.084648,0.042761,-0.550651
15.48,0.294126,1.928157,-11.666982,0.137008,0.059341,-0.571595
15.5,2.908575,0.196084,-10.196354,0.162316,0.048869,-0.571595
15.52,0.849696,-2.222282,-9.51006,0.19635,0.069813,-0.576831
15.54,0.261445,-5.980554,-9.248615,0.208567,0.041888,-0.561996
15.56,-0.490209,-10.849966,-8.758406,0.171915,0.021817,-0.576831
15.58,1.928157,-3.202701,-8.595003,0.113446,0.021817,-0.568105
15.6,0.882377,2.287643,-9.575421,0.050615,0.007854,-0.575959
15.62,0.882377,-4.73869,-9.706144,0.054105,0.048869,-0.560251
15.64,-0.457529,-2.745172,-12.549358,0.044506,0.042761,-0.542797
15.66,1.143822,3.594868,-10.196354,0.060214,0.002618,-0.54367
15.68,1.60135,4.836732,-8.98717,0.09512,0.020944,-0.55676
15.7,1.764753,1.928157,-10.980688,0.129154,0.015708,-0.546288
15.72,0.196084,-1.830115,-12.974206,0.127409,0.041015,-0.526217
15.74,-0.653612,-8.496962,-12.908845,0.112574,0.057596,-0.541925
15.76,1.56867,-5.000135,-8.104794,0.099484,0.053233,-0.477348
15.78,1.307225,-0.817016,-10.849966,0.103847,0.032289,-0.520981
15.8,1.56867,-5.980554,-11.340175,0.048869,0,-0.532325
15.82,1.176502,-0.686293,-9.444699,0.018326,-0.022689,-0.520108
15.84,-0.555571,-3.104659,-8.98717,0.014835,0.018326,-0.513127
15.86,-0.784335,-4.183119,-11.470898,-0.007854,0.042761,-0.494801
15.88,2.777853,4.444564,-9.444699,0.047997,0.03927,-0.494801
15.9,1.013099,-1.241864,-9.47738,0.062832,0.048869,-0.493056
15.92,-0.032681,-2.973936,-9.836866,0.086394,0.028798,-0.507018
15.94,1.274544,1.535989,-10.03295,0.073304,0.018326,-0.496546
15.96,2.679811,4.411884,-8.823768,0.079412,-0.007854,-0.477348
15.98,1.143822,0.294126,-10.948008,0.049742,-0.003491,-0.495674
16,-0.326806,-3.921674,-10.980688,0.034907,0.037525,-0.486947
16.02,0.620932,-1.176502,-11.536259,0.060214,0.028798,-0.485202
16.04,1.666712,-0.718974,-8.333558,0.044506,0.018326,-0.486074
16.06,2.679811,3.398784,-8.4316,0.040143,-0.000873,-0.485202
16.08,2.516408,2.483727,-8.039433,0.02618,-0.012217,-0.473857
16.1,1.764753,2.941256,-9.379338,0.028798,0.013963,-0.479966
16.12,0.653612,-0.294126,-10.359756,0.056723,0.034907,-0.477348
16.14,0.032681,-3.529507,-11.307494,0.093375,0.034034,-0.47822
16.16,-0.261445,-4.281161,-11.340175,0.071558,0.027925,-0.475602
16.18,0.032681,-4.967454,-8.496962,0.075049,0,-0.46164
16.2,0.359487,-0.751654,-9.444699,0.09163,-0.006109,-0.496546
16.22,1.339905,-0.424848,-9.804186,0.059341,0.006981,-0.481711
16.24,1.764753,2.385685,-10.686563,0.079412,0.015708,-0.472984
16.26,2.581769,5.392303,-9.183254,0.035779,0.014835,-0.479966
16.28,2.418366,2.385685,-8.46428,0.055851,0.02618,-0.472984
16.3,2.908575,3.006617,-7.091694,0.051487,0.043633,-0.475602
16.32,2.745172,2.745172,-7.38582,0.058469,0.008727,-0.49131
16.34,2.745172,3.496826,-8.693045,0.068941,-0.006109,-0.470366
16.36,2.810533,4.673329,-9.150574,0.082903,-0.019199,-0.46513
16.38,2.12424,4.640648,-9.673464,0.054105,0.006981,-0.462512
16.4,1.60135,1.307225,-8.791087,0.081158,0.041015,-0.454658
16.42,1.307225,-0.163403,-10.719243,0.093375,0.03927,-0.460767
16.44,0.52289,-4.117758,-9.967589,0.116937,0.014835,-0.451168
16.46,0.52289,-2.320324,-10.130992,0.092502,0.023562,-0.462512
16.48,0.359487,-2.451046,-10.229034,0.056723,0.001745,-0.452913
16.5,2.058879,4.019716,-9.150574,0.040143,0.002618,-0.449422
16.52,2.058879,4.052397,-9.117893,0.031416,0.019199,-0.436332
16.54,1.797434,1.241864,-9.346658,0.023562,0.021817,-0.432842
16.56,-0.032681,-5.457664,-11.209453,0.058469,0.017453,-0.420624
16.58,0.392167,-4.706009,-10.392437,0.069813,0.006109,-0.417134
16.6,0.915057,-2.353005,-9.052532,0.070686,-0.025307,-0.419752
16.62,2.287643,2.385685,-8.823768,0.090757,-0.040143,-0.417134
16.64,1.437947,1.862795,-10.621202,0.077667,-0.040143,-0.401426
16.66,0.555571,-1.503309,-11.666982,0.073304,-0.005236,-0.39619
16.68,0.228764,-2.973936,-9.706144,0.054105,0.018326,-0.375246
16.7,0.947738,-1.209183,-8.921809,0.053233,0.023562,-0.371755
16.72,2.353005,0.817016,-8.039433,0,-0.007854,-0.340339
16.74,0.588251,-0.653612,-7.320459,-0.008727,-0.013963,-0.338594
16.76,0.424848,-2.581769,-11.928427,-0.055851,-0.002618,-0.348193
16.78,-0.098042,-3.790952,-12.320594,-0.010472,0.022689,-0.322013
16.8,1.437947,0.196084,-10.653882,-0.012217,0.028798,-0.320268
16.82,2.451046,3.071978,-8.137474,-0.015708,0.032289,-0.315032
16.84,0.163403,1.013099,-8.856448,-0.002618,0.02618,-0.300197
16.86,0.163403,-1.470628,-9.738825,0.021817,0.008727,-0.298451
16.88,1.241864,1.013099,-9.412019,0.054105,0,-0.295833
16.9,1.634031,2.385685,-10.425117,0.058469,0.015708,-0.294961
16.92,0.392167,-2.516408,-11.274814,0.000873,0.02618,-0.281871
16.94,0.326806,-2.320324,-10.098311,0.009599,0.028798,-0.273144
16.96,1.895476,1.437947,-8.333558,0.005236,0.028798,-0.274889
16.98,1.437947,-0.52289,-8.98717,0.000873,0.014835,-0.271399
17,-0.065361,-3.758271,-10.980688,-0.022689,0.007854,-0.26529
17.02,0.947738,-2.712492,-10.653882,-0.001745,-0.014835,-0.264417
17.04,2.189601,3.725591,-9.117893,-0.012217,0,-0.242601
17.06,1.56867,1.013099,-10.392437,-0.011345,0.027053,-0.237365
17.08,0.228764,-2.451046,-10.359756,0.029671,0.027925,-0.238237
17.1,0.915057,0.065361,-8.95449,0.050615,0.020944,-0.232129
17.12,2.058879,3.431465,-8.758406,0.080285,0.027925,-0.241728
17.14,0.915057,-0.980419,-10.915327,0.054978,0.018326,-0.222529
17.16,0.359487,-1.634031,-11.013369,0.020944,0.005236,-0.232129
17.18,0.52289,-0.326806,-9.542741,0.021817,0.008727,-0.217293
17.2,1.960837,4.477245,-8.791087,-0.012217,0.016581,-0.219911
17.22,1.993518,1.830115,-10.359756,-0.002618,0.027053,-0.211185
17.24,0.196084,-2.908575,-11.830384,-0.012217,0.034034,-0.216421
17.26,1.111141,-0.686293,-9.967589,-0.003491,0.017453,-0.21293
17.28,2.12424,2.189601,-7.581904,-0.001745,0.015708,-0.208567
17.3,2.451046,2.549088,-8.627684,0.033161,-0.006981,-0.213803
17.32,0.849696,-1.895476,-10.098311,0.006981,-0.016581,-0.205949
17.34,0.392167,-4.281161,-12.941525,0.009599,0.011345,-0.191986
17.36,0.882377,-2.941256,-10.948008,0.028798,0.027053,-0.188496
17.38,2.483727,2.908575,-8.791087,0.017453,0.049742,-0.191114
17.4,1.634031,1.535989,-8.889129,0.002618,0.036652,-0.171915
17.42,0.718974,-0.817016,-9.346658,-0.027053,-0.003491,-0.181514
17.44,-0.326806,-4.607967,-10.457798,-0.012217,-0.002618,-0.179769
17.46,1.013099,-3.300743,-11.274814,-0.034907,0.017453,-0.165806
17.48,2.549088,5.523025,-10.196354,-0.029671,0.025307,-0.154462
17.5,1.634031,1.339905,-10.163672,-0.038397,0.047997,-0.130027
17.52,0.261445,-4.869412,-10.163672,-0.004363,0.040143,-0.123046
17.54,2.679811,2.64713,-8.170155,0.035779,0.015708,-0.123918
17.56,-0.098042,-5.980554,-10.621202,0.040143,0.007854,-0.111701
17.58,2.843214,4.673329,-7.745307,0.035779,-0.002618,-0.106465
17.6,0.392167,1.209183,-10.55584,-0.001745,0.013963,-0.097738
17.62,-0.620932,-5.032815,-12.451316,0.007854,0.028798,-0.098611
17.64,3.660229,7.287778,-8.039433,-0.050615,0.020071,-0.071558
17.66,0.424848,2.12424,-9.542741,-0.09512,0.044506,-0.077667
17.68,-0.849696,-6.928291,-9.869547,-0.129154,0.051487,-0.047997
17.7,1.143822,-0.718974,-8.627684,-0.060214,0.011345,-0.033161
17.72,3.529507,7.843349,-8.398919,-0.087266,-0.014835,-0.011345
17.74,2.451046,5.196218,-10.196354,-0.036652,0.009599,0.000873
17.76,-0.326806,-2.581769,-12.12451,-0.016581,0.051487,0.008727
17.78,-1.209183,-5.424983,-11.209453,0.063705,0.046251,0.028798
17.8,1.111141,-1.56867,-8.889129,0.075049,0.049742,0.030543
17.82,2.516408,2.875895,-6.797569,0.058469,0.009599,0.069813
17.84,3.562188,5.588386,-6.634166,0.028798,0.014835,0.055851
17.86,3.366104,6.274679,-7.712626,0.023562,-0.008727,0.073304
17.88,2.712492,3.529507,-8.104794,-0.071558,-0.025307,0.09512
17.9,0.098042,-5.751789,-11.699662,-0.095993,-0.000873,0.105592
17.92,-1.241864,-5.523025,-11.209453,-0.123918,0.042761,0.103847
17.94,3.594868,9.215935,-8.758406,-0.096866,0.029671,0.119555
17.96,-0.294126,-6.372721,-8.693045,-0.070686,0.020071,0.130027
17.98,3.69291,4.313842,-8.268197,-0.03927,0.006981,0.137881
18,-0.686293,-0.163403,-11.209453,-0.010472,-0.016581,0.142244
18.02,-0.359487,-5.686428,-9.183254,-0.004363,-0.025307,0.137008
18.04,0.653612,-6.045915,-11.830384,0.032289,0.041015,0.1309
18.06,0.555571,-4.542606,-10.294395,0.036652,0.020944,0.151844
18.08,0.653612,3.562188,-7.745307,-0.009599,0.002618,0.143117
18.1,2.418366,-2.09156,-10.392437,-0.005236,0.018326,0.152716
18.12,1.862795,7.810668,-7.777987,-0.049742,-0.037525,0.150098
18.14,0.228764,-3.758271,-10.55584,-0.071558,-0.014835,0.138754
18.16,1.274544,-7.876029,-13.137609,-0.102102,0.003491,0.144862
18.18,1.209183,-4.607967,-11.144092,-0.127409,0.003491,0.154462
18.2,2.09156,-3.17002,-10.52316,-0.07854,0.044506,0.159698
18.22,1.830115,-2.12424,-9.281296,-0.087266,-0.006109,0.149226
18.24,1.960837,-3.562188,-9.673464,-0.008727,0.035779,0.152716
18.26,2.026198,-4.706009,-10.163672,-0.004363,0.018326,0.152716
18.28,0.947738,-7.483862,-10.849966,0.014835,0.014835,0.16057
18.3,0.620932,-1.60135,-11.699662,0.042761,-0.008727,0.158825
18.32,0.457529,-4.313842,-10.915327,0.012217,0.000873,0.161443
18.34,0.490209,0.098042,-8.660364,0.019199,0.040143,0.139626
18.36,1.372586,4.73869,-7.451181,-0.043633,0.01309,0.132645
18.38,2.026198,3.856313,-8.006752,-0.040143,0.002618,0.138754
18.4,1.666712,3.333423,-9.183254,-0.124791,-0.02618,0.132645
18.42,2.09156,-1.04578,-9.575421,-0.112574,0.015708,0.145735
18.44,1.666712,-4.248481,-10.621202,-0.093375,0.008727,0.123046
18.46,0.718974,-3.921674,-11.340175,-0.027053,0.042761,0.131772
18.48,1.307225,5.653747,-7.843349,0.000873,0.01309,0.139626
18.5,1.960837,-6.470763,-10.686563,-0.011345,0.022689,0.135263
18.52,0.915057,6.241998,-8.496962,0.059341,0.015708,0.130027
18.54,2.353005,-3.725591,-10.719243,-0.000873,0.030543,0.110828
18.56,1.307225,5.000135,-9.248615,0.042761,0.017453,0.120428
18.58,2.058879,-4.607967,-11.307494,-0.056723,0.02618,0.101229
18.6,1.699392,5.000135,-8.366239,-0.034907,0.006109,0.110828
18.62,1.372586,-4.019716,-10.686563,-0.120428,0.031416,0.083776
18.64,1.830115,5.588386,-8.170155,-0.074176,0.014835,0.10821
18.66,0.947738,-1.405267,-10.490479,-0.119555,0.002618,0.100356
18.68,2.385685,2.516408,-9.281296,-0.055851,-0.01309,0.10472
18.7,1.04578,-0.882377,-11.536259,-0.036652,0.01309,0.085521
18.72,2.222282,-1.862795,-9.542741,0.023562,0.03927,0.10821
18.74,1.143822,4.477245,-8.398919,-0.011345,0.033161,0.081158
18.76,0.751654,-4.477245,-8.366239,0.068941,-0.014835,0.100356
18.78,1.209183,5.326941,-9.673464,0,-0.028798,0.089012
18.8,1.666712,-4.673329,-11.111411,0.017453,-0.022689,0.099484
18.82,2.12424,5.588386,-9.706144,-0.034907,0.014835,0.084648
18.84,0.882377,0.588251,-9.183254,0.006109,0.021817,0.07854
18.86,1.176502,-6.438082,-10.392437,-0.101229,0.009599,0.051487
18.88,1.535989,-2.058879,-9.248615,-0.093375,-0.006981,0.076794
18.9,1.339905,-4.73869,-9.706144,-0.101229,-0.025307,0.090757
18.92,0.817016,-1.176502,-9.412019,-0.029671,-0.003491,0.086394
18.94,1.928157,-0.326806,-11.013369,-0.023562,0.02618,0.048869
18.96,1.111141,-1.699392,-9.902227,0.019199,0.010472,0.064577
18.98,1.143822,-1.111141,-10.229034,0.029671,-0.000873,0.077667
19,1.111141,0.424848,-9.248615,0.041015,0.003491,0.046251
19.02,0.980419,-1.928157,-9.085213,0.007854,-0.014835,0.067195
19.04,2.418366,3.17002,-9.313976,-0.041888,0.021817,0.054105
19.06,2.549088,4.248481,-10.163672,-0.009599,0.045379,0.030543
19.08,1.437947,-2.189601,-9.640783,-0.068068,0.018326,0.057596
19.1,1.993518,0.52289,-9.346658,-0.080285,-0.013963,0.073304
19.12,2.483727,4.411884,-10.359756,-0.037525,0.006109,0.062832
19.14,1.535989,1.013099,-10.915327,-0.051487,0.020944,0.061087
19.16,1.07846,-3.562188,-9.706144,-0.018326,0.024435,0.079412
19.18,1.209183,-2.843214,-7.843349,-0.028798,0.014835,0.088139
19.2,3.235381,7.974072,-7.581904,0.048869,0.023562,0.076794
19.22,2.254963,5.359622,-10.392437,0.077667,0.020071,0.061087
19.24,1.666712,1.699392,-11.993788,0.059341,0.030543,0.070686
19.26,1.241864,-4.77137,-10.229034,0.021817,0.041015,0.100356
19.28,0.620932,-6.209318,-10.229034,-0.089012,0.041015,0.123046
19.3,2.222282,-1.274544,-8.95449,-0.123046,0.019199,0.112574
19.32,1.895476,-0.098042,-9.706144,-0.137008,-0.001745,0.093375
19.34,2.810533,5.817151,-8.496962,-0.096866,-0.000873,0.100356
19.36,2.12424,5.228899,-9.183254,-0.054978,0.018326,0.068941
19.38,1.928157,2.418366,-9.706144,-0.004363,0.044506,0.067195
19.4,1.241864,-5.228899,-12.385955,0.006109,0.074176,0.083776
19.42,1.013099,-6.666846,-10.294395,0.010472,0.019199,0.149226
19.44,0.947738,-2.61445,-9.412019,-0.003491,0.020944,0.123046
19.46,2.581769,6.405402,-7.255098,0.049742,-0.005236,0.110828
19.48,2.451046,4.934773,-8.300878,-0.001745,-0.000873,0.089012
19.5,2.222282,5.392303,-8.333558,0.069813,0.036652,0.040143
19.52,2.026198,3.954355,-10.588521,0.027925,0.050615,0.058469
19.54,0.915057,-5.621067,-11.209453,-0.041888,0.043633,0.102974
19.56,1.372586,-5.78447,-11.503578,-0.098611,0.024435,0.124791
19.58,1.764753,-5.457664,-9.869547,-0.102974,0.002618,0.1309
19.6,1.764753,-0.718974,-8.98717,-0.042761,0.006109,0.103847
19.62,2.64713,3.69291,-9.052532,-0.041015,0.02618,0.069813
19.64,3.725591,8.202836,-9.706144,0.007854,0.031416,0.03927
19.66,2.222282,2.418366,-9.379338,0.046251,0.044506,0.030543
19.68,1.111141,-2.418366,-9.281296,0.041015,0.037525,0.054978
19.7,1.274544,-2.254963,-10.00027,0.044506,0.032289,0.075049
19.72,1.960837,-1.013099,-10.52316,-0.007854,0.036652,0.089012
19.74,2.810533,2.385685,-8.660364,-0.03927,0.034034,0.102102
19.76,2.189601,1.764753,-7.614584,-0.031416,0.024435,0.075922
19.78,2.875895,4.444564,-7.777987,-0.079412,0.025307,0.056723
19.8,1.928157,4.640648,-7.679945,-0.136136,0.007854,0.050615
19.82,2.712492,5.26158,-7.38582,-0.089012,0.016581,0.033161
19.84,1.274544,0.261445,-9.47738,-0.109083,0.033161,0.056723
19.86,1.60135,-2.353005,-9.869547,-0.057596,0.016581,0.058469
19.88,2.026198,-4.640648,-11.176772,-0.034907,0.037525,0.061087
19.9,2.810533,-5.882512,-10.751924,-0.007854,0.051487,0.067195
19.92,3.071978,-2.483727,-11.568939,0.027053,0.063705,0.028798
19.94,2.254963,-1.209183,-10.098311,0.014835,0.023562,0.006109
19.96,1.797434,1.60135,-9.902227,-0.013963,-0.01309,0.009599
19.98,1.797434,1.503309,-9.608102,-0.07854,0.003491,0.021817
20,2.64713,-1.307225,-10.065631,-0.038397,0.014835,0.03927
20.02,2.875895,-1.699392,-9.967589,-0.037525,0.056723,0.043633
20.04,2.843214,0.032681,-9.215935,-0.019199,0.047997,0.02618
20.06,4.052397,8.104794,-8.202836,0.030543,0.024435,-0.012217
20.08,2.026198,5.032815,-8.170155,0.019199,-0.000873,0.015708
20.1,2.941256,1.634031,-9.640783,0.006109,0.032289,-0.020944
20.12,3.496826,1.209183,-11.928427,0.012217,0.043633,-0.030543
20.14,4.77137,4.673329,-9.673464,-0.001745,-0.027925,-0.020071
20.16,3.758271,1.176502,-8.98717,-0.06545,-0.024435,-0.021817
20.18,3.529507,2.451046,-9.738825,0.045379,0.006109,-0.028798
20.2,3.69291,2.941256,-8.660364,0.015708,-0.000873,-0.073304
20.22,2.777853,-0.52289,-9.281296,-0.015708,-0.019199,-0.068941
20.24,3.104659,6.764888,-9.738825,0.048869,0.022689,-0.055851
20.26,4.281161,-0.686293,-8.202836,0.020071,0.013963,-0.072431
20.28,2.189601,0.490209,-9.836866,0.010472,-0.010472,-0.114319
20.3,0.686293,-8.46428,-10.686563,-0.013963,-0.022689,-0.114319
20.32,1.797434,-3.562188,-8.366239,-0.043633,-0.027925,-0.177151
20.34,1.960837,-5.424983,-11.503578,-0.08203,-0.018326,-0.14748
20.36,4.77137,-3.69291,-9.085213,0.018326,0.036652,-0.127409
20.38,4.575287,0.359487,-9.183254,0.01309,0.007854,-0.179769
20.4,2.843214,0.915057,-11.765023,0.123046,0.011345,-0.198968
20.42,2.353005,-2.451046,-6.34004,0.07854,0.007854,-0.249582
20.44,3.17002,0.686293,-10.980688,0.046251,0.000873,-0.251327
20.46,2.875895,-4.477245,-7.90871,0.042761,0.019199,-0.224275
20.48,2.941256,-2.908575,-13.431735,-0.046251,-0.002618,-0.254818
20.5,3.464146,1.307225,-7.614584,0.054978,-0.003491,-0.294961
20.52,1.960837,-4.836732,-14.542876,-0.075049,-0.010472,-0.279253
20.54,2.385685,-0.392167,-5.26158,0.038397,0.027053,-0.315905
20.56,4.477245,-0.163403,-12.353274,0.010472,0.05236,-0.314159
20.58,3.104659,4.019716,-10.065631,0.098611,0.040143,-0.326377
20.6,2.287643,-9.869547,-8.856448,0.08203,0.006109,-0.339467
20.62,3.594868,-2.777853,-13.202971,0.073304,0.000873,-0.338594
20.64,4.575287,3.333423,-10.098311,-0.004363,0.019199,-0.389208
20.66,3.790952,2.483727,-6.372721,0.068068,0.055851,-0.355175
20.68,3.333423,6.045915,-9.771505,0.151844,0.10821,-0.395317
20.7,2.64713,-2.712492,-11.470898,-0.018326,0.10472,-0.337721
20.72,3.268062,-5.065496,-10.03295,0.082903,0.02618,-0.316777
20.74,3.660229,-0.424848,-7.320459,0.032289,-0.020944,-0.324631
20.76,3.398784,-5.26158,-10.327076,0.020944,-0.004363,-0.344703
20.78,2.875895,-5.000135,-10.686563,0.02618,0.004363,-0.292343
20.8,3.071978,-0.555571,-10.229034,0.002618,0.030543,-0.273144
20.82,3.366104,1.209183,-9.640783,-0.01309,0.029671,-0.274889
20.84,1.764753,-8.496962,-9.640783,0.001745,0.015708,-0.295833
20.86,4.183119,-5.817151,-10.653882,-0.099484,0.048869,-0.194604
20.88,2.745172,-1.634031,-9.771505,-0.061959,0.038397,-0.167552
20.9,2.61445,-11.699662,-6.405402,0.008727,-0.029671,-0.069813
20.92,3.202701,-4.183119,-9.183254,-0.088139,0.000873,-0.020071
20.94,4.77137,-3.529507,-9.706144,0.025307,0.035779,-0.002618
20.96,3.496826,-2.353005,-9.248615,0.057596,-0.008727,0.01309
20.98,0.882377,-11.274814,-9.542741,-0.042761,0.023562,0.14399
21,4.444564,1.732073,-7.059014,0.086394,0.003491,0.174533
21.02,3.888994,5.26158,-10.03295,-0.09512,0.045379,0.137881
21.04,3.268062,9.346658,-10.163672,0.122173,0.048869,0.146608
21.06,3.333423,0.130722,-6.993653,-0.073304,0.035779,0.244346
21.08,3.071978,-4.019716,-9.150574,-0.001745,-0.038397,0.327249
21.1,2.12424,-7.091694,-10.00027,-0.042761,-0.022689,0.403171
21.12,3.235381,5.980554,-9.019851,-0.097738,0.000873,0.366519
21.14,2.549088,-0.784335,-10.359756,-0.089012,0.021817,0.468621
21.16,4.150439,-5.686428,-7.38582,-0.165806,-0.042761,0.599521
21.18,5.228899,0.424848,-8.758406,-0.224275,0.025307,0.549779
21.2,3.888994,2.156921,-9.934909,-0.150098,0.006981,0.520981
21.22,0.980419,-6.666846,-10.55584,-0.122173,0.004363,0.668461
21.24,2.189601,0.849696,-10.882647,-0.152716,0.075049,0.701622
21.26,3.562188,-0.065361,-8.333558,-0.11781,0.034907,0.79587
21.28,2.189601,7.026333,-8.170155,-0.061087,0.081158,0.685042
21.3,4.836732,4.411884,-9.412019,-0.074176,0.042761,0.794125
21.32,2.581769,2.418366,-7.418501,-0.096866,-0.018326,0.840376
21.34,3.562188,-6.928291,-11.699662,-0.13439,0.016581,0.937242
21.36,4.2158,0.294126,-8.398919,-0.101229,0.01309,0.892736
21.38,5.817151,15.784739,-9.412019,-0.163188,0.073304,0.8875
21.4,5.163538,4.607967,-10.882647,-0.171042,0.004363,0.903208
21.42,3.627549,0.163403,-8.039433,-0.230383,-0.016581,0.873537
21.44,4.477245,14.118028,-9.738825,-0.164934,0.027925,0.83514
21.46,6.111276,9.379338,-7.614584,-0.191986,0.022689,0.877028
21.48,3.496826,3.790952,-10.229034,-0.185005,0.046251,0.933751
21.5,4.640648,1.732073,-8.889129,-0.162316,-0.032289,0.984366
21.52,4.052397,3.627549,-9.804186,-0.14748,0.012217,0.991347
21.54,4.673329,9.281296,-10.03295,-0.101229,0.022689,0.928515
21.56,4.575287,9.183254,-9.085213,-0.053233,0.001745,0.942478
21.58,5.326941,4.019716,-8.823768,-0.128282,-0.022689,1.062033
21.6,5.196218,1.535989,-5.196218,-0.171042,-0.044506,1.123992
21.62,6.666846,8.496962,-6.666846,-0.141372,-0.05236,0.849975
21.64,4.640648,10.294395,-11.209453,-0.26529,-0.129154,1.062033
21.66,5.000135,-0.490209,-9.019851,-0.063705,0.236492,1.273218
21.68,5.817151,17.190006,-9.444699,-0.116064,0.099484,0.973894
21.7,5.163538,8.921809,-9.967589,-0.067195,0.109956,0.938987
21.72,4.444564,-1.07846,-10.457798,-0.204204,0.1309,1.022763
21.74,5.490344,4.869412,-6.601485,-0.30456,0.054105,0.991347
21.76,7.483862,12.222552,-6.241998,-0.211185,0.003491,0.962549
21.78,4.640648,5.065496,-10.327076,-0.255691,-0.022689,0.914553
21.8,5.163538,6.372721,-11.340175,-0.247837,-0.073304,0.870047
21.82,6.470763,9.085213,-9.738825,-0.18675,-0.087266,0.911062
21.84,4.706009,1.307225,-11.438217,-0.072431,-0.033161,0.925025
21.86,5.326941,10.751924,-13.039567,-0.047124,-0.047997,0.847357
21.88,3.071978,-4.411884,-13.627818,-0.001745,-0.05236,0.877028
21.9,4.967454,7.353139,-8.202836,0.042761,-0.080285,0.852593
21.92,3.758271,3.333423,-8.398919,0.069813,-0.020944,0.828159
21.94,4.2158,9.313976,-7.745307,0.089012,0.032289,0.739147
21.96,3.104659,10.065631,-10.784605,0.005236,-0.028798,0.741765
21.98,3.496826,9.575421,-9.183254,0.027925,0.013963,0.733038
22,1.862795,15.098447,-8.039433,0.000873,-0.006109,0.657989
22.02,2.549088,6.83025,-9.934909,-0.002618,0.041015,0.657116
22.04,3.594868,10.719243,-8.562323,-0.040143,-0.010472,0.459894
22.06,2.581769,8.333558,-8.627684,-0.054105,0.09163,0.76969
22.08,2.483727,0.784335,-6.928291,-0.07854,0.034034,0.834267
22.1,1.634031,4.2158,-8.758406,-0.133518,0.137881,0.589921
22.12,1.307225,4.575287,-10.490479,-0.116064,0.11781,0.694641
22.14,1.830115,4.902093,-8.95449,-0.150098,0.141372,0.64839
22.16,1.176502,13.399055,-11.340175,-0.094248,0.17017,0.589049
22.18,0.718974,6.732208,-10.130992,-0.101229,0.15708,0.656244
22.2,2.810533,18.105064,-9.673464,-0.10472,0.210312,0.593412
22.22,2.254963,10.52316,-9.836866,-0.07854,0.115192,0.557633
22.24,0.849696,4.967454,-8.4316,-0.090757,-0.020071,0.600393
22.26,1.013099,3.202701,-6.928291,-0.066323,-0.001745,0.452913
22.28,0.849696,2.12424,-6.405402,-0.083776,-0.062832,0.443314
22.3,0.392167,1.04578,-7.451181,-0.059341,-0.041888,0.431096
22.32,1.699392,8.398919,-6.143957,-0.139626,-0.009599,0.391826
22.34,-0.424848,1.111141,-10.55584,-0.175406,-0.003491,0.320268
22.36,2.287643,0.915057,-3.790952,-0.189368,-0.027925,0.321141
22.38,-2.320324,-0.196084,-13.595138,-0.312414,0.025307,0.116937
22.4,0.228764,11.634301,-8.104794,-0.109083,0.034907,0.075049
22.42,-2.287643,-12.483996,-6.732208,-0.198968,0.082903,0.11781
22.44,1.503309,4.150439,-8.072113,-0.024435,0.187623,0.099484
22.46,1.960837,4.706009,-7.712626,0.185005,0.059341,-0.014835
22.48,0.032681,16.340309,-10.294395,0.195477,0.022689,-0.016581
22.5,0.457529,-4.640648,-9.869547,0.172788,0.073304,-0.004363
22.52,0.817016,7.026333,-10.490479,0.098611,-0.089884,-0.187623
22.54,1.111141,1.437947,-13.725861,-0.035779,-0.059341,-0.233874
22.56,1.732073,1.60135,-12.843484,-0.297579,-0.092502,-0.391826
22.58,-0.163403,-4.542606,-12.6474,-0.405789,-0.024435,-0.401426
22.6,0.915057,2.418366,-11.699662,-0.458149,0.028798,-0.424115
22.62,-0.326806,6.045915,-9.706144,-0.298451,0.164061,-0.564614
22.64,0.228764,-5.457664,-10.00027,-0.138754,0.253945,-0.51749
22.66,0.032681,8.366239,-9.052532,0.148353,0.234747,-0.660607
22.68,0.163403,-2.875895,-8.562323,0.353429,0.181514,-0.647517
22.7,0.228764,-10.915327,-9.902227,0.554142,0.013963,-0.767945
22.72,-0.261445,-7.745307,-9.183254,0.611738,-0.15708,-0.864811
22.74,0.359487,-3.464146,-9.444699,0.576831,-0.236492,-0.973894
22.76,-0.784335,-9.052532,-11.765023,0.363028,-0.205949,-1.009673
22.78,0.490209,-2.222282,-10.817286,0.213803,-0.10821,-1.124865
22.8,-1.07846,-8.235517,-10.359756,0.005236,-0.034907,-1.160644
22.82,0.817016,1.274544,-6.764888,-0.116064,0.029671,-1.246165
22.84,-0.751654,-6.568805,-10.457798,-0.09163,0.089012,-1.251401
22.86,0.326806,0.424848,-7.091694,-0.142244,0.057596,-1.286308
22.88,0.359487,0.163403,-3.496826,-0.110828,-0.096866,-1.373574
22.9,-0.555571,-5.523025,-12.026468,0.023562,-0.11781,-1.310742
22.92,-0.490209,-3.856313,-14.248751,0.221657,-0.068068,-1.357866
22.94,-0.326806,-8.039433,-16.634436,0.344703,0.036652,-1.371829
22.96,1.209183,-5.751789,-19.183523,0.529707,0.1213,-1.448623
22.98,0.588251,-18.95476,-12.222552,0.431969,0.15708,-1.432043
23,-1.405267,-7.777987,-10.915327,0.35692,0.202458,-1.503601
23.02,0.424848,-2.09156,-4.869412,0.294961,0.239983,-1.528908
23.04,-0.359487,-1.895476,-2.058879,0.217293,0.200713,-1.53589
23.06,0.52289,1.274544,-4.379203,0.169297,0.061959,-1.480039
23.08,-0.196084,-5.980554,-7.679945,0.139626,-0.096866,-1.373574
23.1,-1.470628,6.405402,-4.411884,0.178024,-0.228638,-1.510582
23.12,-0.261445,-5.228899,-11.797704,-0.069813,-0.236492,-1.353503
23.14,-1.470628,-8.104794,-17.94166,-0.185005,-0.191986,-1.355248
23.16,-1.241864,0.555571,-11.536259,-0.302815,-0.082903,-1.379683
23.18,-0.196084,-8.333558,-10.065631,-0.300197,-0.103847,-1.389282
23.2,0.490209,-10.392437,-8.921809,-0.024435,-0.011345,-1.411099
23.22,0.653612,-13.104929,-7.124375,0.158825,0.060214,-1.439897
23.24,-0.751654,-5.490344,-9.281296,0.46164,-0.023562,-1.364847
23.26,-1.209183,-13.366374,-13.464416,0.568105,-0.023562,-1.345649
23.28,-0.52289,-6.274679,-8.235517,0.895354,-0.023562,-1.361357
23.3,-1.56867,-14.706279,-15.457933,0.688532,0.082903,-1.414589
23.32,-0.326806,-5.457664,-15.098447,0.584685,0.19635,-1.514946
23.34,-0.163403,-4.313842,-8.039433,0.363028,0.281871,-1.544616
23.36,0.392167,-2.189601,-5.78447,0.328122,0.189368,-1.545489
23.38,0.098042,-1.895476,-2.712492,0.220784,0.096866,-1.480039
23.4,0.130722,-3.202701,-5.621067,0.18675,-0.028798,-1.343904
23.42,0.196084,-3.202701,-9.183254,0.047997,-0.182387,-1.28369
23.44,-0.784335,-6.797569,-13.758541,-0.130027,-0.192859,-1.240929
23.46,0.653612,-12.059149,-12.255233,-0.401426,-0.155334,-1.212131
23.48,1.013099,-8.202836,-9.771505,-0.34383,-0.046251,-1.261
23.5,0.130722,-10.03295,-14.183389,-0.237365,0.076794,-1.316851
23.52,0.751654,-5.849831,-11.699662,-0.003491,0.157952,-1.32645
23.54,0.261445,-4.183119,-8.921809,0.212058,0.262672,-1.363975
23.56,0.849696,1.699392,-7.353139,0.506145,0.193732,-1.329941
23.58,0.490209,-3.627549,-8.300878,0.629191,0.138754,-1.279326
23.6,0,-5.26158,-9.771505,0.733038,-0.005236,-1.211259
23.62,-0.130722,-9.51006,-11.111411,0.679806,-0.080285,-1.145809
23.64,-0.915057,-10.882647,-13.006886,0.445932,-0.058469,-1.105666
23.66,-0.228764,-4.248481,-12.222552,0.236492,0.041015,-1.164135
23.68,-0.196084,-1.862795,-3.758271,0.041888,0.074176,-1.177225
23.7,-0.457529,-8.235517,-8.921809,0.037525,0.087266,-1.189442
23.72,-0.130722,0.555571,-3.594868,-0.07854,0.098611,-1.177225
23.74,-0.196084,-6.83025,-5.326941,-0.124791,0.046251,-1.153663
23.76,0.359487,-3.856313,-11.176772,0.068068,-0.153589,-1.066396
23.78,-0.653612,-5.947873,-20.261984,-0.122173,-0.248709,-0.96604
23.8,0.326806,-4.706009,-8.006752,-0.006109,-0.246964,-0.932006
23.82,0.065361,-11.830384,-13.595138,0.145735,-0.207694,-0.90059
23.84,-1.176502,-12.026468,-18.824038,0.15708,-0.025307,-0.940732
23.86,-0.588251,-3.856313,-8.856448,0.189368,0.16057,-1.042834
23.88,-0.882377,-7.418501,-9.215935,0.237365,0.162316,-1.041962
23.9,-0.457529,-3.758271,-4.019716,0.157952,0.206822,-1.080359
23.92,0.457529,0.457529,-6.86293,0.169297,0.175406,-1.10043
23.94,0.457529,0.882377,-4.313842,0.095993,0.215548,-1.154535
23.96,-0.52289,-10.817286,-11.503578,0.133518,0.082903,-1.077741
23.98,-0.326806,-6.176637,-11.470898,-0.002618,-0.07854,-1.056797
24,-0.392167,-9.47738,-12.745441,0.025307,-0.203331,-0.986984
24.02,-0.490209,-10.621202,-11.699662,0.06545,-0.258309,-0.945968
24.04,-0.065361,-2.777853,-8.072113,0.085521,-0.181514,-0.99571
24.06,-0.065361,-2.516408,-8.202836,0.080285,-0.103847,-1.022763
24.08,-0.490209,-3.725591,-5.980554,0.08203,-0.041888,-1.089085
24.1,-0.490209,-0.718974,-9.150574,0.115192,0.025307,-1.118756
24.12,0.032681,-2.156921,-9.51006,0.139626,0.102102,-1.117883
24.14,0.294126,-4.575287,-11.503578,0.178896,0.068941,-1.066396
24.16,0.751654,-2.026198,-13.006886,0.248709,0.000873,-1.027999
24.18,0.882377,-2.581769,-12.418635,0.282743,-0.098611,-0.960804
24.2,1.143822,-0.849696,-10.392437,0.321141,-0.169297,-0.903208
24.22,0.392167,-3.496826,-9.248615,0.309796,-0.177151,-0.867429
24.24,0.130722,-4.542606,-9.346658,0.23911,-0.09163,-0.854339
24.26,0.52289,-2.451046,-9.706144,0.166679,0.031416,-0.843867
24.28,0.424848,-4.477245,-9.902227,0.13439,0.089012,-0.872665
24.3,0.52289,-2.908575,-10.425117,0.073304,0.086394,-0.836013
24.32,0.098042,-5.098177,-10.621202,0.041888,0.01309,-0.761836
24.34,0.294126,-2.777853,-9.771505,0.005236,-0.083776,-0.711222
24.36,0.588251,-1.111141,-10.196354,-0.005236,-0.10472,-0.677188
24.38,0.915057,2.451046,-9.150574,0.006981,-0.102974,-0.627446
24.4,0.718974,1.013099,-10.00027,0.029671,-0.037525,-0.614356
24.42,0.065361,-2.353005,-10.00027,0.061959,0.043633,-0.586431
24.44,0.620932,-1.372586,-9.444699,0.064577,0.076794,-0.573341
24.46,0.718974,-0.130722,-9.47738,0.09512,0.071558,-0.547161
24.48,1.176502,3.006617,-10.00027,0.166679,0.008727,-0.518363
24.5,0.457529,1.339905,-10.261715,0.138754,-0.067195,-0.490438
24.52,0.457529,0.490209,-10.588521,0.13439,-0.070686,-0.470366
24.54,0.098042,-2.61445,-9.640783,0.089884,-0.028798,-0.458149
24.56,0.228764,-2.254963,-9.738825,0.075922,0.059341,-0.433714
24.58,-0.163403,-2.156921,-9.706144,0.027053,0.094248,-0.419752
24.6,0.620932,-1.699392,-9.575421,-0.053233,0.105592,-0.398808
24.62,0.718974,1.535989,-9.706144,-0.061087,0.051487,-0.369137
24.64,1.143822,2.254963,-8.758406,-0.054978,0.010472,-0.372628
24.66,0.065361,-2.777853,-9.47738,-0.068941,0.006981,-0.358665
24.68,-0.032681,-2.09156,-10.229034,0.010472,0.031416,-0.339467
24.7,0.359487,0.359487,-9.836866,0.025307,0.075049,-0.335103
24.72,0.359487,0.294126,-9.575421,0.090757,0.062832,-0.308923
24.74,0.490209,-0.457529,-9.575421,0.116064,0.036652,-0.314159
24.76,0.686293,0.915057,-9.412019,0.118682,0.012217,-0.294961
24.78,0.718974,0.751654,-9.738825,0.080285,0.045379,-0.282743
24.8,0.555571,0.980419,-10.196354,0.102102,0.042761,-0.280125
24.82,0.294126,-1.503309,-10.52316,0.036652,0.070686,-0.272271
24.84,0.424848,-1.339905,-10.00027,-0.001745,0.057596,-0.261799
24.86,0.620932,-0.817016,-9.673464,-0.034034,0.066323,-0.253073
24.88,0.882377,0.620932,-8.921809,-0.032289,0.083776,-0.253945
24.9,1.372586,-0.130722,-8.95449,-0.033161,0.079412,-0.233001
24.92,0.620932,-0.686293,-10.457798,-0.047124,0.060214,-0.221657
24.94,0.718974,-0.555571,-9.869547,-0.057596,0.023562,-0.206822
24.96,0.457529,1.209183,-9.706144,-0.003491,0.063705,-0.202458
24.98,0.52289,1.895476,-9.640783,0.019199,0.053233,-0.215548
25,0.980419,1.470628,-9.51006,0.046251,0.034034,-0.198968
25.02,1.04578,2.222282,-10.817286,0.056723,0.035779,-0.185005
25.04,0.751654,2.712492,-10.392437,0.077667,-0.003491,-0.179769
25.06,0.653612,2.385685,-9.150574,0.08203,0.021817,-0.177151
25.08,0.751654,2.156921,-10.849966,0.051487,0.053233,-0.161443
25.1,0.457529,-1.503309,-9.640783,0.015708,0.037525,-0.153589
25.12,0.424848,-0.784335,-8.595003,-0.042761,0.034034,-0.145735
25.14,0.196084,0.032681,-9.117893,-0.069813,-0.018326,-0.158825
25.16,0.555571,1.241864,-9.51006,-0.094248,-0.003491,-0.152716
25.18,0.686293,0.817016,-11.340175,-0.048869,0.023562,-0.149226
25.2,0.326806,-0.130722,-10.196354,-0.045379,0.024435,-0.145735
25.22,0.261445,-0.196084,-9.575421,-0.010472,0.041015,-0.126536
25.24,0.686293,1.307225,-9.640783,0.023562,0.027925,-0.116064
25.26,0.817016,1.143822,-9.967589,0.038397,0.005236,-0.10472
25.28,1.209183,1.503309,-9.248615,0.055851,0.020944,-0.109956
25.3,0.032681,0.784335,-10.065631,0.071558,0.018326,-0.113446
25.32,0.686293,-0.392167,-9.346658,0.080285,0.009599,-0.10472
25.34,0.196084,-1.732073,-9.575421,0.009599,0.005236,-0.10821
25.36,0.980419,-1.274544,-9.640783,-0.027053,0.007854,-0.088139
25.38,1.07846,-0.228764,-8.856448,-0.069813,0.015708,-0.098611
25.4,0.817016,0.718974,-9.804186,-0.093375,0.01309,-0.087266
25.42,0.980419,-0.849696,-9.640783,-0.070686,0.004363,-0.082903
25.44,1.04578,0.490209,-10.065631,-0.093375,-0.020944,-0.088139
25.46,1.274544,0.784335,-10.751924,-0.015708,-0.012217,-0.072431
25.48,0.784335,1.111141,-11.111411,-0.006109,0.015708,-0.068068
25.5,0.555571,-0.882377,-9.738825,0.032289,0.016581,-0.071558
25.52,0.294126,-0.065361,-8.921809,0.054105,0.012217,-0.077667
25.54,0.947738,1.862795,-9.150574,0.073304,-0.001745,-0.088139
25.56,0.424848,0.882377,-9.967589,0.027925,-0.020071,-0.082903
25.58,1.111141,1.111141,-9.706144,0.027053,-0.010472,-0.08203
25.6,0.718974,0.261445,-9.608102,-0.027053,-0.003491,-0.090757
25.62,0.261445,-0.52289,-10.784605,-0.049742,0.014835,-0.090757
25.64,0.686293,1.111141,-10.261715,-0.034907,0.012217,-0.082903
25.66,0.718974,1.60135,-10.294395,-0.033161,0.016581,-0.07854
25.68,0.718974,0.228764,-9.706144,-0.020071,-0.001745,-0.082903
25.7,0.849696,-0.849696,-8.333558,0.023562,0.012217,-0.09163
25.72,1.04578,0.163403,-9.346658,0.041015,0.033161,-0.088139
25.74,0.490209,-0.980419,-9.869547,0.07854,0.019199,-0.074176
25.76,0.817016,-0.882377,-9.313976,0.066323,-0.013963,-0.070686
25.78,0.915057,-0.980419,-9.248615,0.020071,-0.009599,-0.068068
25.8,0.947738,-0.359487,-9.804186,-0.027053,-0.006981,-0.067195
25.82,1.07846,1.764753,-11.209453,-0.075049,0.008727,-0.077667
25.84,0.620932,0.947738,-10.882647,-0.050615,0.023562,-0.079412
25.86,0.52289,0.326806,-9.183254,-0.075922,0.016581,-0.082903
25.88,0.817016,1.699392,-9.150574,-0.054978,0.012217,-0.082903
25.9,0.294126,0.359487,-9.738825,-0.019199,0.024435,-0.081158
25.92,0.52289,-0.326806,-9.542741,0.015708,0.017453,-0.076794
25.94,0.653612,-0.620932,-9.640783,0.046251,0.006981,-0.072431
25.96,0.555571,-0.915057,-10.130992,0.066323,0.006981,-0.067195
25.98,0.228764,-0.718974,-9.215935,0.102102,-0.003491,-0.06545
26,0.718974,-0.163403,-9.150574,0.054105,-0.016581,-0.080285
26.02,0.882377,-0.588251,-9.836866,0.020071,-0.004363,-0.077667
26.04,1.111141,-0.098042,-9.967589,-0.006109,0.011345,-0.068941
26.06,0.751654,-0.555571,-10.163672,-0.02618,0.006109,-0.074176
26.08,0.915057,-0.588251,-10.163672,-0.070686,0.020071,-0.071558
26.1,0.653612,0.947738,-8.921809,-0.10821,0.022689,-0.072431
26.12,0.882377,1.372586,-9.575421,-0.051487,-0.02618,-0.061959
26.14,0.620932,1.535989,-9.771505,-0.014835,0.003491,-0.063705
26.16,0.228764,0.653612,-9.934909,0.059341,0.005236,-0.061087
26.18,0.163403,-0.457529,-10.327076,0.049742,0.027053,-0.046251
26.2,1.111141,-0.849696,-9.771505,0.059341,0.037525,-0.05236
26.22,0.980419,0.032681,-9.836866,0.027053,0.019199,-0.061087
26.24,0.784335,0.817016,-10.425117,-0.025307,0.000873,-0.041015
26.26,0.751654,0.947738,-10.00027,-0.073304,0.002618,-0.041015
26.28,0.392167,0,-9.313976,-0.100356,0.020071,-0.041015
26.3,1.176502,0.457529,-9.869547,-0.115192,0.020944,-0.043633
26.32,0.52289,0.424848,-9.085213,-0.10472,0.019199,-0.047997
26.34,0.882377,1.241864,-9.019851,-0.060214,-0.011345,-0.03927
26.36,0.457529,0.228764,-10.359756,-0.008727,-0.000873,-0.036652
26.38,0.915057,1.895476,-10.359756,0.032289,0.022689,-0.045379
26.4,0.653612,0.980419,-10.327076,0.03927,0.053233,-0.05236
26.42,0.588251,0.032681,-9.608102,0.072431,0.021817,-0.048869
26.44,0.653612,-0.032681,-9.346658,0.059341,0.033161,-0.061959
26.46,0.588251,0.326806,-9.313976,0.05236,0.023562,-0.061087
26.48,0.326806,0.098042,-10.196354,0.023562,-0.01309,-0.062832
26.5,0.947738,0.686293,-10.163672,-0.008727,-0.016581,-0.054978
26.52,0.882377,0.424848,-10.588521,-0.033161,0.025307,-0.064577
26.54,0.915057,0.52289,-9.313976,-0.057596,0.045379,-0.061087
26.56,1.111141,2.026198,-9.804186,-0.042761,0.051487,-0.06545
26.58,0.718974,-0.849696,-9.346658,-0.041015,0.015708,-0.047124
26.6,2.09156,3.921674,-9.51006,-0.023562,-0.023562,-0.027925
26.62,1.372586,1.339905,-8.791087,-0.013963,-0.002618,-0.028798
26.64,4.2158,6.568805,-7.483862,0.044506,0.029671,-0.027925
26.66,-1.111141,-5.065496,-10.686563,0.048869,0.02618,-0.037525
26.68,3.725591,7.091694,-6.764888,0.019199,0.023562,-0.040143
26.7,-2.12424,-3.594868,-13.921944,-0.002618,0.015708,-0.042761
26.72,-3.268062,-6.34004,-13.725861,-0.007854,0.015708,-0.029671
26.74,-3.202701,-4.967454,-13.69318,-0.027053,0.030543,-0.027925
26.76,0.457529,3.366104,-12.320594,-0.025307,0.041015,-0.027053
26.78,5.26158,5.032815,-6.30736,-0.011345,0.022689,-0.027053
26.8,-0.980419,-5.424983,-10.457798,-0.033161,0.011345,-0.021817
26.82,2.058879,5.228899,-10.065631,-0.03927,0.004363,-0.014835
26.84,0.751654,-5.294261,-9.542741,-0.015708,0.016581,-0.022689
26.86,2.222282,6.241998,-9.183254,-0.014835,0.031416,-0.009599
26.88,-0.784335,-3.987036,-10.948008,-0.024435,0.020944,-0.003491
26.9,3.823632,3.725591,-7.451181,-0.007854,0.027053,-0.019199
26.92,-1.895476,-0.686293,-12.353274,-0.004363,0.024435,-0.000873
26.94,2.679811,-3.856313,-8.039433,-0.019199,0.002618,-0.011345
26.96,3.13734,6.86293,-8.4316,-0.019199,-0.014835,0.003491
26.98,2.254963,7.059014,-9.542741,-0.027053,-0.008727,-0.010472
27,1.535989,-9.215935,-10.261715,-0.035779,0.030543,-0.016581
27.02,1.339905,-5.751789,-11.013369,-0.05236,0.077667,-0.020944
27.04,1.07846,-4.967454,-10.490479,-0.050615,0.068941,-0.014835
27.06,0.784335,-3.790952,-10.229034,-0.027053,0.014835,-0.027925
27.08,0.718974,-3.790952,-10.359756,-0.009599,-0.004363,-0.022689
27.1,1.732073,0.130722,-9.412019,-0.009599,-0.006109,-0.020071
27.12,1.372586,1.339905,-9.215935,0.009599,0.042761,-0.020071
27.14,1.732073,-0.588251,-9.738825,0.011345,0.031416,-0.023562
27.16,1.209183,-0.326806,-9.673464,0.014835,0.023562,-0.031416
27.18,1.764753,0.359487,-9.640783,-0.000873,0.006981,-0.029671
27.2,1.535989,1.732073,-9.902227,0.011345,0.016581,-0.031416
27.22,1.535989,0.849696,-9.706144,-0.001745,0.01309,-0.047124
27.24,1.535989,-1.07846,-9.346658,-0.010472,0.013963,-0.035779
27.26,1.928157,-0.032681,-9.281296,-0.020944,0.021817,-0.027053
27.28,1.503309,-0.196084,-9.47738,-0.006981,0.017453,-0.02618
27.3,1.666712,-0.620932,-9.444699,-0.029671,0.020944,-0.031416
27.32,1.797434,-0.065361,-9.019851,-0.022689,0.027053,-0.021817
27.34,1.013099,0.065361,-10.163672,-0.024435,0.024435,-0.024435
27.36,1.437947,0.359487,-10.196354,-0.006981,0.011345,-0.036652
27.38,1.111141,0.52289,-10.359756,-0.005236,0.021817,-0.033161
27.4,1.437947,-1.764753,-9.542741,-0.009599,0.045379,-0.041888
27.42,1.111141,-0.915057,-9.47738,-0.006109,0.029671,-0.044506
27.44,1.634031,0.424848,-9.542741,-0.006109,0.009599,-0.031416
27.46,2.026198,1.732073,-9.281296,0.003491,0.001745,-0.046251
27.48,0.915057,-0.817016,-10.163672,0.001745,0.022689,-0.05236
27.5,1.764753,-0.294126,-9.869547,0.000873,0.059341,-0.047997
27.52,1.405267,-1.503309,-10.098311,-0.003491,0.034907,-0.043633
27.54,2.712492,1.830115,-8.4316,-0.01309,-0.006981,-0.037525
27.56,1.56867,0.686293,-9.215935,-0.020071,-0.011345,-0.042761
27.58,1.04578,1.176502,-10.359756,-0.034034,0.024435,-0.054978
27.6,1.07846,0.098042,-10.980688,-0.034034,0.058469,-0.059341
27.62,1.437947,0.52289,-10.653882,-0.027053,0.061087,-0.049742
27.64,1.732073,-0.261445,-10.098311,-0.034907,-0.003491,-0.042761
27.66,2.09156,1.111141,-8.856448,-0.032289,-0.012217,-0.047997
27.68,1.339905,0.130722,-9.836866,-0.037525,0.027053,-0.053233
27.7,1.470628,-0.653612,-9.902227,-0.040143,0.068068,-0.062832
27.72,1.307225,1.209183,-10.392437,-0.010472,0.044506,-0.067195
27.74,1.764753,1.993518,-10.457798,0.001745,0.012217,-0.073304
27.76,1.862795,1.928157,-10.065631,-0.001745,-0.012217,-0.070686
27.78,2.09156,1.797434,-9.902227,-0.004363,0.003491,-0.098611
27.8,2.026198,1.176502,-9.281296,0.01309,0.041015,-0.10821
27.82,2.222282,1.143822,-9.215935,0.005236,0.075922,-0.10821
27.84,2.843214,1.013099,-9.313976,0.02618,0.047997,-0.122173
27.86,1.928157,0.817016,-9.019851,0.001745,0.011345,-0.123046
27.88,1.634031,0.065361,-9.281296,0.015708,0,-0.130027
27.9,1.993518,0.294126,-9.313976,-0.001745,0.019199,-0.137881
27.92,1.895476,-1.07846,-9.085213,0.009599,0.041015,-0.138754
27.94,1.830115,-0.686293,-9.47738,0.019199,0.043633,-0.144862
27.96,1.732073,-0.588251,-9.902227,0.006981,0.027925,-0.161443
27.98,2.222282,-0.032681,-9.346658,-0.005236,0.029671,-0.146608
28,1.928157,0.588251,-9.150574,-0.03927,0.029671,-0.172788
28.02,2.189601,1.111141,-8.823768,-0.009599,0.029671,-0.175406
28.04,2.353005,1.56867,-8.823768,-0.006981,0.025307,-0.180642
28.06,2.353005,1.274544,-9.869547,0.008727,0.012217,-0.177151
28.08,2.64713,0.555571,-10.00027,0.019199,0.027053,-0.180642
28.1,2.353005,-0.588251,-9.738825,0.069813,0.027053,-0.189368
28.12,2.058879,1.274544,-8.398919,0.046251,0.01309,-0.20944
28.14,2.12424,0.196084,-8.562323,0.046251,0.020071,-0.20944
28.16,1.960837,-0.653612,-9.673464,0.072431,0.033161,-0.226893
28.18,2.287643,-0.163403,-9.183254,0.067195,0.046251,-0.246091
28.2,2.09156,-0.980419,-10.588521,0.045379,0.037525,-0.244346
28.22,1.993518,-0.947738,-9.542741,0.016581,-0.006981,-0.246091
28.24,2.026198,2.549088,-10.261715,-0.004363,-0.006109,-0.263545
28.26,2.222282,3.725591,-10.588521,-0.021817,0.016581,-0.273144
28.28,2.222282,2.483727,-8.921809,0.003491,0.034907,-0.261799
28.3,1.895476,0.294126,-9.836866,-0.008727,0.08203,-0.272271
28.32,3.006617,1.339905,-10.425117,-0.013963,0.054978,-0.272271
28.34,2.189601,0.784335,-10.130992,0.013963,0.027925,-0.293215
28.36,1.732073,0.686293,-10.327076,0.009599,0.004363,-0.292343
28.38,1.634031,0.359487,-9.117893,-0.002618,0.017453,-0.292343
28.4,2.287643,1.470628,-9.836866,0.015708,0.054978,-0.280998
28.42,1.176502,-2.777853,-10.425117,-0.004363,0.053233,-0.290597
28.44,1.56867,-1.634031,-10.294395,-0.005236,0.02618,-0.284489
28.46,2.09156,-0.457529,-8.300878,-0.002618,0.01309,-0.290597
28.48,2.058879,-0.980419,-9.738825,-0.008727,0.041015,-0.281871
28.5,1.699392,-0.784335,-9.608102,0.020071,0.066323,-0.299324
28.52,1.56867,-0.065361,-9.444699,0.041015,0.037525,-0.295833
28.54,1.895476,0.228764,-9.346658,0.041015,-0.000873,-0.292343
28.56,1.993518,1.732073,-10.229034,0.006981,-0.008727,-0.294088
28.58,1.56867,-0.065361,-10.163672,0,0.020071,-0.302815
28.6,1.634031,1.111141,-10.588521,-0.034034,0.09163,-0.303687
28.62,1.732073,1.241864,-9.215935,-0.020071,0.074176,-0.287107
28.64,1.797434,0.882377,-9.346658,-0.025307,0.054105,-0.310669
28.66,1.960837,1.535989,-9.215935,-0.004363,0.035779,-0.30456
28.68,0.980419,0.261445,-10.03295,0.061087,0.067195,-0.288852
28.7,1.405267,-1.372586,-9.313976,0.054978,0.071558,-0.294961
28.72,0.980419,-0.490209,-9.673464,0.076794,0.029671,-0.290597
28.74,1.241864,0.457529,-9.281296,0.024435,-0.021817,-0.283616
28.76,0.947738,-0.490209,-9.869547,0.024435,0.012217,-0.271399
28.78,1.209183,2.254963,-9.150574,0.002618,0.049742,-0.27838
28.8,1.535989,-0.588251,-9.902227,0.013963,0.062832,-0.270526
28.82,1.797434,-2.61445,-8.823768,-0.01309,0.035779,-0.261799
28.84,1.764753,-3.104659,-8.595003,-0.020944,0.018326,-0.272271
28.86,1.60135,-2.09156,-9.934909,0.021817,0.013963,-0.273144
28.88,0.196084,2.320324,-10.882647,0.01309,0.019199,-0.256563
28.9,1.764753,-2.483727,-8.235517,0.03927,0.03927,-0.259181
28.92,-0.490209,-1.241864,-9.934909,0.044506,0.030543,-0.255691
28.94,-0.392167,0.849696,-10.55584,0.059341,0.032289,-0.233001
28.96,0.817016,4.117758,-11.503578,0.111701,0.027053,-0.233874
28.98,0.130722,2.287643,-12.451316,0.070686,0.008727,-0.22602
29,-0.588251,-1.830115,-11.144092,0.054978,0.011345,-0.233001
29.02,1.176502,-2.843214,-8.333558,0.007854,0.020071,-0.238237
29.04,2.810533,5.294261,-8.072113,-0.035779,0.013963,-0.213803
29.06,-1.339905,1.535989,-11.699662,-0.076794,0.020944,-0.204204
29.08,2.843214,-1.470628,-7.451181,-0.075922,0.046251,-0.200713
29.1,-0.588251,2.09156,-11.209453,-0.070686,0.024435,-0.185005
29.12,2.156921,-2.581769,-6.732208,-0.030543,0.018326,-0.185878
29.14,-0.784335,-0.163403,-11.863065,-0.003491,0.014835,-0.168424
29.16,3.202701,2.09156,-7.516542,0.027925,-0.01309,-0.159698
29.18,-0.098042,-3.366104,-11.209453,0.040143,0.006109,-0.167552
29.2,0.686293,4.052397,-12.15719,0.073304,0.020071,-0.156207
29.22,3.594868,0.228764,-7.516542,0.074176,0.042761,-0.158825
29.24,-0.882377,-5.032815,-10.490479,0.023562,0.053233,-0.162316
29.26,0.718974,3.987036,-11.60162,0.015708,0.050615,-0.153589
29.28,3.758271,3.039298,-7.38582,0.004363,0.020944,-0.157952
29.3,0.653612,-3.13734,-7.843349,0.040143,0.004363,-0.171915
29.32,-1.405267,-1.732073,-12.026468,0.001745,0.025307,-0.169297
29.34,2.451046,4.967454,-10.294395,0.016581,0.03927,-0.158825
29.36,3.464146,-1.862795,-7.876029,0.012217,0.030543,-0.156207
29.38,-2.12424,-5.294261,-12.15719,0.034034,0.040143,-0.140499
29.4,3.921674,8.137474,-7.124375,0.067195,0.041888,-0.148353
29.42,-2.12424,-5.78447,-8.98717,0.094248,0.017453,-0.142244
29.44,3.69291,-4.804051,-6.438082,0.09163,0.017453,-0.153589
29.46,3.006617,-7.876029,-8.366239,0.081158,0.018326,-0.143117
29.48,0.620932,-1.372586,-10.653882,0.05236,-0.005236,-0.137881
29.5,1.797434,-2.875895,-12.255233,-0.008727,-0.024435,-0.137008
29.52,1.04578,0.882377,-10.621202,-0.017453,0.028798,-0.14748
29.54,1.241864,2.875895,-9.47738,-0.035779,0.042761,-0.148353
29.56,1.634031,-0.784335,-9.215935,-0.050615,0.053233,-0.139626
29.58,1.209183,-1.634031,-10.327076,-0.030543,0.031416,-0.136136
29.6,1.634031,5.817151,-8.725725,0.000873,0,-0.142244
29.62,1.405267,-0.392167,-10.163672,0.034034,0.006109,-0.135263
29.64,1.143822,1.143822,-9.346658,0.057596,0.014835,-0.143117
29.66,1.830115,0,-10.588521,0.041015,0.054105,-0.135263
29.68,1.209183,-0.947738,-10.751924,0.016581,0.056723,-0.140499
29.7,1.209183,-3.758271,-11.078731,0.004363,0.021817,-0.132645
29.72,1.535989,6.34004,-7.843349,-0.011345,-0.025307,-0.141372
29.74,0.490209,-2.12424,-8.791087,-0.061087,0.037525,-0.155334
29.76,1.503309,-3.69291,-9.215935,-0.054978,0.045379,-0.153589
29.78,1.634031,1.928157,-9.346658,-0.020944,0.057596,-0.140499
29.8,2.156921,4.2158,-9.085213,0.031416,0.012217,-0.145735
29.82,1.209183,-0.555571,-11.340175,0.016581,-0.004363,-0.1309
29.84,1.07846,-4.673329,-11.307494,-0.017453,-0.006109,-0.149226
29.86,1.470628,-2.09156,-10.065631,-0.03927,0.056723,-0.137881
29.88,1.895476,1.470628,-9.281296,-0.021817,0.07854,-0.14399
29.9,1.405267,2.973936,-8.006752,-0.01309,0.041015,-0.139626
29.92,0.817016,0.817016,-8.98717,-0.015708,-0.013963,-0.133518
29.94,1.241864,0.882377,-9.313976,0.000873,-0.018326,-0.118682
29.96,1.764753,-3.039298,-10.686563,-0.006981,0.017453,-0.138754
29.98,1.928157,-1.666712,-9.47738,-0.013963,0.032289,-0.137881
30,1.56867,-1.830115,-10.588521,0.005236,0.054978,-0.142244
30.02,1.176502,2.549088,-9.412019,0.006981,0.016581,-0.125664
30.04,1.241864,2.973936,-9.738825,0.020071,-0.018326,-0.123918
30.06,1.013099,2.64713,-8.595003,0.041888,-0.015708,-0.1309
30.08,1.764753,-1.07846,-9.346658,0.002618,0.030543,-0.156207
30.1,1.634031,-2.385685,-9.313976,0.02618,0.040143,-0.137008
30.12,1.013099,-4.281161,-9.934909,-0.015708,0.020944,-0.138754
30.14,1.143822,-0.457529,-8.98717,-0.059341,0,-0.129154
30.16,1.307225,3.921674,-10.653882,-0.043633,-0.017453,-0.126536
30.18,2.09156,4.902093,-10.130992,-0.049742,-0.002618,-0.139626
30.2,1.993518,2.385685,-8.921809,-0.012217,0.053233,-0.150971
30.22,1.764753,-0.294126,-9.706144,0.004363,0.051487,-0.138754
30.24,1.143822,-4.346522,-10.425117,0.032289,0.038397,-0.151844
30.26,0.817016,-1.503309,-9.346658,0.064577,-0.007854,-0.139626
30.28,1.437947,1.634031,-9.150574,0.088139,-0.004363,-0.149226
30.3,1.732073,2.941256,-8.95449,0.096866,0.001745,-0.149226
30.32,1.372586,1.928157,-8.889129,0.081158,0.024435,-0.150971
30.34,1.503309,1.04578,-10.065631,0.032289,0.033161,-0.153589
30.36,0.882377,-4.150439,-10.653882,0.013963,0.006109,-0.144862
30.38,1.339905,-2.581769,-10.163672,-0.010472,-0.041015,-0.149226
30.4,1.830115,-1.111141,-9.934909,0.010472,0.008727,-0.149226
30.42,2.12424,2.189601,-8.398919,0.035779,0.029671,-0.155334
30.44,1.634031,3.104659,-6.83025,0.102102,0.036652,-0.150098
30.46,2.516408,6.503443,-10.229034,0.124791,-0.040143,-0.151844
30.48,0.326806,5.392303,-10.915327,0.141372,-0.090757,-0.112574
30.5,1.111141,2.549088,-11.340175,0.087266,-0.025307,-0.136136
30.52,1.013099,-0.490209,-9.052532,0.01309,0.058469,-0.142244
30.54,1.209183,-2.189601,-8.496962,-0.074176,0.089884,-0.153589
30.56,1.634031,-2.61445,-8.95449,-0.112574,0.097738,-0.163188
30.58,2.222282,-2.189601,-8.95449,-0.116937,0.012217,-0.137008
30.6,1.666712,1.56867,-9.869547,-0.067195,-0.07854,-0.135263
30.62,1.04578,0.620932,-10.915327,0.032289,-0.060214,-0.141372
30.64,1.013099,0.424848,-10.03295,0.130027,-0.019199,-0.13439
30.66,0.980419,0.326806,-9.673464,0.155334,0.047124,-0.130027
30.68,1.07846,1.437947,-7.777987,0.224275,0.011345,-0.126536
30.7,1.830115,-0.751654,-9.902227,0.198095,0.023562,-0.146608
30.72,1.732073,-2.712492,-10.915327,0.157952,-0.015708,-0.148353
30.74,1.60135,-3.464146,-10.980688,0.066323,0.001745,-0.17366
30.76,1.241864,-1.830115,-10.130992,-0.033161,-0.001745,-0.172788
30.78,1.372586,-0.065361,-9.019851,-0.080285,0.014835,-0.179769
30.8,1.797434,2.451046,-8.627684,-0.119555,-0.003491,-0.177151
30.82,1.535989,3.594868,-10.00027,-0.109956,-0.022689,-0.174533
30.84,1.895476,-0.130722,-9.738825,-0.067195,-0.016581,-0.158825
30.86,1.143822,-0.882377,-9.836866,-0.001745,0.032289,-0.166679
30.88,1.56867,-1.830115,-10.294395,0.089012,0.048869,-0.159698
30.9,1.535989,0,-9.706144,0.171042,0.033161,-0.150971
30.92,1.764753,0.359487,-9.379338,0.179769,-0.006981,-0.157952
30.94,1.437947,0.490209,-8.660364,0.18326,-0.040143,-0.157952
30.96,2.222282,1.699392,-9.575421,0.106465,-0.021817,-0.166679
30.98,1.928157,2.451046,-10.163672,0.053233,0.023562,-0.182387
31,1.862795,2.026198,-10.784605,-0.018326,0.040143,-0.177151
31.02,1.274544,0.424848,-9.608102,-0.061087,0.017453,-0.167552
31.04,1.928157,1.013099,-8.660364,-0.088139,-0.027053,-0.184132
31.06,1.862795,0.098042,-8.202836,-0.05236,-0.034034,-0.18326
31.08,1.437947,-2.12424,-9.215935,-0.000873,0.003491,-0.180642
31.1,2.287643,-0.52289,-9.640783,0.021817,0.010472,-0.171915
31.12,1.241864,-1.634031,-11.046049,0.063705,-0.006109,-0.166679
31.14,1.895476,-0.457529,-10.261715,0.083776,-0.016581,-0.169297
31.16,1.503309,-0.718974,-9.085213,0.10821,-0.002618,-0.157952
31.18,2.058879,0.098042,-8.072113,0.119555,-0.006981,-0.163188
31.2,2.353005,-0.52289,-9.804186,0.098611,0.008727,-0.174533
31.22,1.797434,-0.686293,-10.457798,0.059341,-0.016581,-0.166679
31.24,1.04578,-3.17002,-10.719243,0.006109,0.008727,-0.179769
31.26,2.058879,1.928157,-8.889129,-0.02618,0.004363,-0.191986
31.28,1.993518,0.849696,-8.46428,-0.079412,0.002618,-0.192859
31.3,1.895476,2.09156,-9.967589,-0.10472,0.024435,-0.189368
31.32,2.581769,5.032815,-10.065631,-0.081158,0.020944,-0.18675
31.34,1.307225,0.065361,-10.55584,-0.028798,0.009599,-0.171915
31.36,2.222282,-0.588251,-9.085213,0.004363,-0.011345,-0.150971
31.38,1.013099,-3.104659,-9.51006,0.085521,-0.034034,-0.159698
31.4,1.797434,-1.274544,-8.595003,0.05236,-0.032289,-0.148353
31.42,2.026198,0.817016,-9.673464,0.064577,-0.017453,-0.14748
31.44,2.320324,2.12424,-10.196354,0.054105,0.06545,-0.158825
31.46,2.777853,1.797434,-10.980688,0.041015,0.055851,-0.14748
31.48,2.12424,0.359487,-9.934909,-0.001745,0.005236,-0.148353
31.5,1.535989,-2.941256,-8.95449,-0.027053,-0.010472,-0.118682
31.52,2.679811,-0.228764,-8.333558,-0.060214,-0.018326,-0.11781
31.54,0.980419,-1.07846,-9.019851,-0.069813,0,-0.112574
31.56,2.09156,-0.065361,-9.215935,-0.047124,0.027925,-0.116937
31.58,2.64713,2.712492,-9.412019,-0.009599,0.036652,-0.110828
31.6,2.222282,2.875895,-10.098311,-0.034907,0.006109,-0.118682
31.62,2.222282,4.934773,-10.817286,0.007854,-0.002618,-0.133518
31.64,1.928157,3.039298,-9.771505,-0.024435,0.002618,-0.118682
31.66,0.555571,-1.176502,-10.490479,-0.035779,0.017453,-0.093375
31.68,1.503309,-1.928157,-9.869547,-0.017453,0.009599,-0.11781
31.7,2.353005,-1.176502,-8.529642,-0.050615,0.024435,-0.106465
31.72,2.156921,2.189601,-9.281296,-0.049742,0.020944,-0.114319
31.74,2.516408,4.313842,-9.51006,-0.041015,0.027053,-0.144862
31.76,2.026198,4.085077,-9.575421,-0.042761,0.018326,-0.144862
31.78,2.026198,1.666712,-9.313976,-0.055851,0.015708,-0.115192
31.8,1.111141,-1.176502,-8.758406,-0.086394,0.029671,-0.118682
31.82,1.405267,-0.098042,-10.294395,-0.086394,0.01309,-0.097738
31.84,1.732073,1.07846,-10.653882,-0.09163,0.007854,-0.10821
31.86,1.732073,-0.196084,-11.209453,-0.058469,0.033161,-0.10821
31.88,1.830115,-1.07846,-9.967589,-0.002618,0.020944,-0.100356
31.9,1.372586,-1.405267,-9.313976,0.024435,0.029671,-0.11781
31.92,0.424848,-5.000135,-9.085213,0.016581,0.041888,-0.102102
31.94,0.228764,-5.000135,-11.242133,-0.018326,0.035779,-0.084648
31.96,1.764753,-1.699392,-9.346658,0.001745,0.046251,-0.110828
31.98,1.307225,-2.12424,-9.150574,-0.075922,0.032289,-0.110828
32,1.405267,1.503309,-9.575421,-0.061087,0.019199,-0.119555
32.02,1.013099,1.437947,-9.281296,-0.084648,0.011345,-0.111701
32.04,1.176502,-2.745172,-11.307494,-0.072431,0.03927,-0.114319
32.06,1.732073,-1.699392,-9.150574,-0.033161,0.061959,-0.119555
32.08,1.60135,-2.875895,-7.974072,0.014835,0.047124,-0.116937
32.1,1.176502,3.235381,-10.948008,0.055851,0.040143,-0.130027
32.12,2.026198,-2.222282,-8.823768,0.085521,0.049742,-0.122173
32.14,0.980419,-4.019716,-8.856448,0.102974,0.048869,-0.111701
32.16,3.006617,0.098042,-6.732208,0.062832,0.029671,-0.136136
32.18,0.947738,2.451046,-11.242133,0.075049,0.022689,-0.116937
32.2,2.64713,-0.980419,-8.856448,-0.003491,0.021817,-0.133518
32.22,-0.980419,-4.509925,-10.588521,-0.053233,0.044506,-0.120428
32.24,-0.980419,-2.451046,-12.189871,-0.10821,0.075049,-0.128282
32.26,-0.718974,-5.719109,-10.980688,-0.077667,0.034034,-0.116064
32.28,0.686293,-3.856313,-7.581904,-0.040143,0.006981,-0.113446
32.3,2.941256,3.987036,-8.4316,-0.008727,0.036652,-0.10821
32.32,-0.588251,-3.529507,-11.732343,0.02618,0.063705,-0.114319
32.34,2.843214,3.333423,-9.346658,0.072431,0.03927,-0.095993
32.36,2.516408,0.620932,-7.647265,0.116064,0.011345,-0.114319
32.38,-0.098042,-3.562188,-10.359756,0.082903,0.012217,-0.106465
32.4,-0.947738,-3.039298,-12.189871,0.011345,0.022689,-0.116937
32.42,-0.588251,-2.516408,-11.013369,-0.020944,0.06545,-0.106465
32.44,-0.359487,-1.764753,-10.065631,-0.008727,0.059341,-0.107338
32.46,-0.784335,-3.202701,-10.229034,0.020944,0.027053,-0.126536
32.48,0.555571,-2.64713,-10.719243,0.003491,0.030543,-0.114319
32.5,1.666712,2.287643,-8.725725,0.006981,0.049742,-0.113446
32.52,2.61445,3.660229,-8.235517,0.017453,0.055851,-0.100356
32.54,0.980419,-0.555571,-9.215935,0.028798,0.035779,-0.101229
32.56,0.392167,-2.353005,-11.046049,0.054978,-0.01309,-0.087266
32.58,0.784335,0.228764,-11.765023,0.012217,0.012217,-0.09512
32.6,1.405267,0.784335,-10.817286,0.012217,0.034907,-0.09512
32.62,3.529507,7.189736,-9.281296,0.035779,0.046251,-0.114319
32.64,2.679811,2.516408,-7.189736,-0.012217,0.054105,-0.105592
32.66,-0.359487,-3.823632,-10.784605,-0.021817,0,-0.101229
32.68,0.751654,-1.111141,-10.588521,-0.05236,0.003491,-0.101229
32.7,2.581769,2.516408,-9.085213,-0.036652,0.022689,-0.087266
32.72,-1.241864,-5.653747,-11.765023,-0.020071,0.05236,-0.088139
32.74,3.496826,2.875895,-8.137474,-0.020071,0.015708,-0.097738
32.76,-1.209183,-6.209318,-11.732343,-0.01309,-0.016581,-0.09163
32.78,3.562188,5.78447,-7.549223,0.006109,-0.008727,-0.084648
32.8,-1.241864,-3.888994,-12.320594,0.012217,0.020944,-0.094248
32.82,3.071978,4.052397,-7.124375,0.013963,0.038397,-0.102102
32.84,0.130722,-1.634031,-11.013369,0.006109,0.048869,-0.087266
32.86,-2.385685,-10.980688,-11.274814,0.035779,0.010472,-0.102102
32.88,-1.405267,-12.353274,-9.640783,0.050615,-0.006109,-0.093375
32.9,-2.875895,-0.228764,-12.582039,0.017453,-0.001745,-0.096866
32.92,-1.111141,-1.699392,-9.281296,0.013963,-0.008727,-0.102974
32.94,1.04578,8.529642,-10.03295,0.036652,0,-0.100356
32.96,0.261445,-8.170155,-10.915327,0.001745,0.002618,-0.105592
32.98,1.764753,-5.130857,-11.176772,-0.032289,0.020071,-0.116937
33,1.928157,-1.339905,-9.902227,0,0.009599,-0.115192
33.02,1.797434,7.581904,-8.268197,0.032289,-0.002618,-0.119555
33.04,0.588251,-6.666846,-10.130992,-0.002618,0.034034,-0.119555
33.06,1.797434,5.849831,-8.529642,0.038397,0.021817,-0.122173
33.08,0.947738,-3.235381,-9.575421,0.03927,-0.002618,-0.115192
33.1,0.784335,-2.058879,-10.52316,0.056723,0.006109,-0.123046
33.12,1.732073,4.477245,-9.019851,0.061959,0.017453,-0.126536
33.14,2.353005,2.745172,-8.006752,0.016581,0.003491,-0.1309
33.16,1.07846,-3.954355,-10.490479,0.006981,0.004363,-0.129154
33.18,1.307225,-2.64713,-11.111411,-0.030543,-0.001745,-0.139626
33.2,1.274544,-0.326806,-11.144092,-0.049742,0.047124,-0.137881
33.22,1.732073,3.398784,-9.738825,-0.022689,0.029671,-0.1309
33.24,1.764753,6.274679,-8.366239,-0.006109,0.010472,-0.125664
33.26,1.895476,4.869412,-8.46428,0.010472,-0.001745,-0.140499
33.28,1.209183,2.320324,-9.575421,0.022689,0.009599,-0.109083
33.3,1.993518,3.496826,-10.130992,0.037525,0.022689,-0.11781
33.32,1.830115,-1.535989,-9.640783,0.046251,0.035779,-0.109956
33.34,2.09156,0.098042,-10.52316,0.034034,0.006109,-0.124791
33.36,1.307225,-1.993518,-9.804186,-0.001745,-0.023562,-0.123046
33.38,1.764753,1.470628,-10.098311,-0.008727,0.013963,-0.133518
33.4,1.503309,-0.653612,-9.706144,-0.021817,0.034907,-0.145735
33.42,1.830115,-2.09156,-9.019851,-0.042761,0.019199,-0.1309
33.44,1.56867,-0.817016,-8.496962,-0.034907,-0.014835,-0.120428
33.46,1.56867,-0.588251,-9.934909,0.009599,-0.000873,-0.123918
33.48,1.470628,-1.634031,-9.608102,0,0.004363,-0.141372
33.5,2.254963,0.392167,-9.215935,0.008727,0.006981,-0.112574
33.52,1.699392,-2.058879,-10.425117,0.014835,0.025307,-0.11781
33.54,1.56867,-2.189601,-9.738825,-0.014835,0.002618,-0.123918
33.56,2.026198,-1.405267,-9.052532,-0.025307,-0.021817,-0.120428
33.58,1.666712,-1.176502,-9.313976,-0.031416,-0.004363,-0.126536
33.6,1.797434,0.098042,-10.55584,-0.011345,0.018326,-0.136136
33.62,1.862795,-0.588251,-9.575421,-0.01309,0.01309,-0.164061
33.64,1.764753,-0.947738,-8.758406,-0.008727,0.020071,-0.144862
33.66,1.895476,1.07846,-9.575421,0.032289,-0.000873,-0.132645
33.68,1.928157,2.61445,-10.065631,0.01309,-0.000873,-0.136136
33.7,1.699392,-0.588251,-9.51006,0.033161,0.038397,-0.145735
33.72,1.960837,0.359487,-8.496962,0.046251,-0.000873,-0.125664
33.74,1.830115,1.307225,-8.562323,-0.006981,-0.024435,-0.130027
33.76,1.764753,1.274544,-11.176772,0.003491,0.016581,-0.141372
33.78,1.732073,0.653612,-10.490479,-0.015708,0.027925,-0.148353
33.8,1.928157,0.882377,-8.235517,-0.006981,0.015708,-0.144862
33.82,2.64713,4.019716,-9.934909,0.000873,0.020071,-0.157952
33.84,1.666712,1.503309,-11.438217,0.020944,0.03927,-0.138754
33.86,1.405267,-3.790952,-9.51006,0.019199,0.02618,-0.14399
33.88,1.56867,-2.516408,-7.222417,0.005236,-0.002618,-0.131772
33.9,1.895476,0.130722,-8.823768,-0.013963,-0.017453,-0.150971
33.92,1.535989,-1.56867,-10.490479,0.012217,0.02618,-0.14399
33.94,1.209183,-3.17002,-10.817286,-0.034907,0.034034,-0.135263
33.96,2.254963,0.098042,-9.150574,-0.019199,0.035779,-0.161443
33.98,1.928157,1.699392,-9.673464,-0.016581,0.003491,-0.146608
34,1.04578,-0.784335,-10.621202,-0.019199,0.032289,-0.148353
34.02,2.058879,-1.339905,-9.346658,-0.004363,0.033161,-0.149226
34.04,1.470628,-1.176502,-8.693045,-0.014835,0.010472,-0.124791
34.06,2.189601,-0.032681,-10.229034,-0.002618,0.017453,-0.162316
34.08,2.222282,-0.228764,-11.144092,-0.012217,0.013963,-0.146608
34.1,1.666712,-1.307225,-8.95449,0.03927,0.020944,-0.150098
34.12,1.862795,1.04578,-9.183254,0.034907,0.021817,-0.156207
34.14,2.353005,1.895476,-10.948008,0.040143,0.048869,-0.158825
34.16,2.09156,2.810533,-11.274814,0.023562,0.048869,-0.154462
34.18,1.797434,-2.418366,-8.496962,0.007854,-0.010472,-0.137008
34.2,1.960837,0.751654,-8.627684,0.023562,-0.001745,-0.145735
34.22,2.385685,4.117758,-10.098311,0.02618,0.027925,-0.205076
34.24,2.385685,1.307225,-9.934909,0.006981,0.045379,-0.161443
34.26,1.928157,1.699392,-8.496962,-0.020071,0.036652,-0.167552
34.28,1.797434,3.071978,-10.098311,0.015708,0.022689,-0.175406
34.3,2.058879,5.294261,-10.653882,0.042761,0.044506,-0.174533
34.32,1.437947,0.163403,-10.55584,0.03927,0.025307,-0.191986
34.34,1.764753,-0.620932,-7.38582,0.016581,-0.014835,-0.17017
34.36,2.549088,0.555571,-8.791087,0,0.017453,-0.177151
34.38,1.928157,-0.424848,-11.765023,-0.034034,0.018326,-0.185878
34.4,2.12424,0.457529,-10.163672,-0.015708,0.020071,-0.17017
34.42,2.320324,1.960837,-8.300878,0.015708,0.020944,-0.176278
34.44,1.405267,-0.882377,-9.575421,0.003491,0.022689,-0.177151
34.46,1.764753,2.353005,-9.836866,0.023562,0.024435,-0.188496
34.48,1.895476,-0.915057,-8.823768,-0.006109,0.004363,-0.174533
34.5,2.156921,-0.490209,-8.823768,-0.013963,-0.011345,-0.184132
34.52,1.56867,-0.980419,-10.653882,-0.009599,-0.009599,-0.185878
34.54,1.339905,-2.483727,-11.470898,-0.016581,0.020944,-0.18675
34.56,1.372586,-3.431465,-9.444699,-0.027925,0.037525,-0.185005
34.58,2.026198,0.653612,-9.281296,0.034907,0.008727,-0.195477
34.6,0.882377,0.882377,-9.575421,0.002618,0.027053,-0.210312
34.62,2.222282,1.764753,-8.725725,0.053233,0.006109,-0.228638
34.64,1.503309,-3.039298,-9.248615,0.018326,0.009599,-0.204204
34.66,3.006617,0.588251,-10.163672,-0.022689,0.013963,-0.201586
34.68,2.581769,4.673329,-10.849966,0.086394,0.029671,-0.224275
34.7,2.189601,2.222282,-9.804186,0.014835,0.032289,-0.220784
34.72,1.732073,0.980419,-9.248615,0.099484,0.021817,-0.239983
34.74,2.385685,4.77137,-7.810668,0.031416,0.020944,-0.251327
34.76,0.947738,-3.13734,-10.098311,0.055851,0.010472,-0.244346
34.78,1.405267,-3.69291,-10.425117,0.061959,0.004363,-0.245219
34.8,1.013099,-4.542606,-9.869547,0.022689,-0.024435,-0.233874
34.82,1.830115,1.437947,-9.575421,0.075922,-0.001745,-0.2522
34.84,2.581769,4.019716,-11.013369,0.069813,0.01309,-0.274017
34.86,1.503309,0.130722,-9.902227,0.041015,0.02618,-0.270526
34.88,1.732073,0.915057,-8.268197,0.042761,0,-0.272271
34.9,1.535989,-0.098042,-9.379338,0.028798,-0.011345,-0.280998
34.92,0.817016,-4.640648,-11.536259,0.018326,-0.016581,-0.267908
34.94,2.581769,3.69291,-10.653882,0.032289,0.021817,-0.277507
34.96,1.928157,2.973936,-9.313976,0.025307,0.02618,-0.298451
34.98,2.777853,5.163538,-8.562323,0.012217,0.034034,-0.29147
35,1.797434,0.751654,-9.608102,0.036652,0.007854,-0.302815
35.02,0.784335,-3.333423,-9.052532,0.068941,-0.037525,-0.267035
35.04,1.960837,2.320324,-9.150574,0.061959,-0.012217,-0.30456
35.06,1.143822,1.503309,-9.934909,0.019199,0.02618,-0.310669
35.08,1.470628,1.013099,-9.673464,0.033161,0.047124,-0.319395
35.1,1.209183,-1.60135,-9.183254,0.044506,0.000873,-0.292343
35.12,1.405267,-0.163403,-8.46428,0.05236,-0.006981,-0.287979
35.14,1.732073,-0.457529,-10.03295,0.068068,-0.034034,-0.29147
35.16,0.751654,-4.836732,-10.621202,0.048869,0.005236,-0.302815
35.18,1.470628,-4.019716,-8.137474,0.020071,-0.005236,-0.309796
35.2,1.830115,0.849696,-8.758406,0.064577,-0.025307,-0.314159
35.22,1.372586,-1.732073,-9.248615,0.009599,-0.055851,-0.303687
35.24,-2.156921,-4.607967,3.464146,0.089012,-0.282743,-0.321141
35.26,1.013099,-3.594868,-11.961107,0.020944,-0.083776,-0.299324
35.28,3.006617,0.098042,-22.157461,0.061959,0.083776,-0.319395
35.3,3.594868,2.287643,-14.575557,0.020944,0.106465,-0.333358
35.32,2.353005,-3.071978,-10.55584,0.079412,0.159698,-0.323759
35.34,1.307225,-2.745172,-8.137474,0.021817,0.102974,-0.311541
35.36,1.241864,-0.915057,-7.157056,0.030543,0.054105,-0.364774
35.38,0.424848,-5.555706,-8.529642,0.060214,-0.015708,-0.298451
35.4,1.699392,-2.679811,-8.496962,-0.027925,-0.006981,-0.363028
35.42,1.699392,0.947738,-7.777987,0.036652,-0.005236,-0.335976
35.44,2.058879,1.013099,-10.00027,0.050615,0.002618,-0.363901
35.46,1.209183,1.699392,-10.588521,0.060214,-0.007854,-0.342957
35.48,2.451046,1.274544,-9.412019,0.066323,0.004363,-0.347321
35.5,1.274544,-1.143822,-8.98717,0.003491,0.000873,-0.322886
35.52,1.634031,0,-11.372856,0.014835,0.022689,-0.347321
35.54,1.862795,-0.588251,-10.425117,0.025307,0.020071,-0.349066
35.56,1.274544,-4.281161,-9.967589,0.021817,-0.012217,-0.328995
35.58,1.634031,-2.64713,-9.150574,0.075922,0,-0.337721
35.6,0.784335,-3.856313,-10.163672,0.004363,0.019199,-0.33074
35.62,1.013099,-2.679811,-10.392437,0.088139,0.013963,-0.327249
35.64,2.254963,-0.849696,-8.98717,0.02618,0.031416,-0.323759
35.66,1.60135,3.660229,-9.640783,0.089012,0.053233,-0.316777
35.68,2.058879,-0.261445,-9.836866,0.10472,0.171915,-0.339467
35.7,0.915057,-8.529642,-8.856448,0.002618,0.064577,-0.275762
35.72,2.222282,-1.470628,-10.03295,-0.014835,-0.090757,-0.280125
35.74,2.353005,4.085077,-10.229034,0.006109,-0.1213,-0.313287
35.76,2.254963,3.039298,-10.980688,-0.011345,-0.089884,-0.322886
35.78,1.862795,0.457529,-8.562323,0.056723,-0.032289,-0.285361
35.8,1.405267,-1.993518,-9.673464,-0.008727,0.074176,-0.29147
35.82,0.980419,-2.287643,-11.111411,0.068068,0.097738,-0.269653
35.84,1.862795,-0.326806,-11.274814,-0.063705,0.080285,-0.239983
35.86,1.797434,-0.424848,-8.98717,0.032289,-0.012217,-0.260054
35.88,2.09156,3.104659,-10.03295,0.042761,-0.024435,-0.236492
35.9,1.666712,-0.424848,-8.693045,0.056723,0.012217,-0.241728
35.92,1.176502,-3.398784,-9.869547,0.067195,0.048869,-0.231256
35.94,1.699392,-1.372586,-8.693045,-0.013963,0.030543,-0.216421
35.96,1.503309,-2.581769,-9.608102,0.016581,0.030543,-0.210312
35.98,1.437947,-2.64713,-10.03295,-0.042761,0.012217,-0.172788
36,2.09156,0.065361,-8.496962,-0.01309,-0.019199,-0.156207
36.02,1.993518,-1.274544,-9.542741,0.013963,0.01309,-0.139626
36.04,1.56867,1.666712,-9.248615,-0.025307,0.037525,-0.148353
36.06,1.764753,1.797434,-9.771505,-0.036652,0.03927,-0.139626
36.08,1.503309,-5.196218,-10.229034,-0.006981,0.006109,-0.102102
36.1,2.908575,2.026198,-8.333558,-0.027925,-0.028798,-0.101229
36.12,1.764753,8.006752,-9.575421,0.062832,0.03927,-0.132645
36.14,0.817016,-1.666712,-10.392437,-0.006109,-0.001745,-0.086394
36.16,1.993518,1.241864,-9.248615,0.009599,0.008727,-0.075049
36.18,1.339905,-1.07846,-9.346658,-0.004363,0.008727,-0.040143
36.2,1.797434,-2.679811,-9.313976,0.002618,0.044506,-0.047997
36.22,0.065361,-10.130992,-10.55584,-0.057596,-0.002618,0.014835
36.24,2.353005,-2.222282,-9.902227,-0.047124,0.021817,0.005236
36.26,1.699392,-1.56867,-11.013369,-0.059341,0.008727,-0.005236
36.28,1.666712,-0.163403,-9.542741,-0.048869,0.014835,0.027053
36.3,1.437947,-3.13734,-8.366239,-0.020071,0.006109,0.027053
36.32,2.581769,6.274679,-7.90871,-0.054105,0.03927,-0.002618
36.34,1.274544,-0.359487,-9.444699,-0.01309,0.034034,0.037525
36.36,2.287643,0.620932,-9.281296,-0.012217,0.015708,0.06545
36.38,1.372586,-3.104659,-8.268197,-0.001745,0.003491,0.085521
36.4,1.143822,-3.039298,-9.379338,-0.041015,0.001745,0.113446
36.42,2.61445,2.12424,-11.176772,0.023562,0.062832,0.109956
36.44,2.058879,-1.60135,-9.967589,-0.034034,0.040143,0.123046
36.46,1.862795,-0.980419,-8.660364,-0.055851,0.009599,0.133518
36.48,0.52289,-2.679811,-9.869547,0.006981,0.014835,0.119555
36.5,0.392167,-3.69291,-9.869547,-0.106465,0.027925,0.14399
36.52,1.07846,-5.947873,-9.640783,-0.06545,0.000873,0.177151
36.54,1.111141,-0.065361,-9.771505,-0.062832,0.027053,0.151844
36.56,2.189601,6.34004,-10.490479,-0.044506,0.037525,0.139626
36.58,2.451046,7.941391,-10.03295,0.034907,0.064577,0.133518
36.6,0.849696,0.130722,-8.627684,-0.057596,0.015708,0.188496
36.62,1.666712,1.405267,-9.085213,-0.020944,0.042761,0.205949
36.64,1.372586,-1.960837,-11.078731,-0.062832,0.019199,0.246964
36.66,0.915057,-6.405402,-9.902227,-0.01309,0.016581,0.229511
36.68,1.862795,1.04578,-10.653882,-0.041888,0.057596,0.215548
36.7,1.56867,-1.176502,-8.562323,-0.05236,0.002618,0.218166
36.72,1.470628,2.353005,-9.052532,-0.020071,0.033161,0.207694
36.74,2.156921,0.490209,-8.725725,-0.127409,0.006981,0.216421
36.76,2.941256,2.549088,-8.856448,0.001745,0.021817,0.220784
36.78,1.339905,-1.143822,-9.804186,-0.038397,0.020944,0.224275
36.8,1.307225,5.196218,-9.640783,0.005236,-0.006109,0.214676
36.82,2.058879,9.608102,-8.693045,0.050615,0.003491,0.22602
36.84,1.07846,-1.862795,-7.418501,0.035779,-0.01309,0.202458
36.86,1.04578,5.882512,-8.104794,0.049742,0.005236,0.226893
36.88,-1.143822,-4.346522,-12.843484,-0.031416,0.004363,0.240855
36.9,3.790952,21.667252,-3.69291,0.029671,-0.08203,0.116937
36.92,5.588386,-0.359487,-8.725725,-0.13439,-0.047124,0.230383
36.94,0.52289,-7.843349,-13.006886,0.003491,0.057596,0.253945
36.96,2.777853,3.333423,-8.758406,-0.180642,0.127409,0.190241
36.98,2.875895,0.882377,-7.516542,-0.093375,0.122173,0.187623
37,0.555571,-0.228764,-8.170155,-0.18326,0.089884,0.223402
37.02,2.222282,-2.973936,-5.78447,-0.054105,0.003491,0.217293
37.04,0,0.620932,-10.163672,-0.057596,-0.013963,0.214676
37.06,1.535989,9.444699,-8.333558,0.030543,-0.010472,0.18675
37.08,3.235381,9.444699,-9.51006,0.138754,0.005236,0.210312
37.1,0.980419,1.04578,-9.313976,0.061959,0.027053,0.231256
37.12,0.588251,1.764753,-8.529642,0.041888,0.054978,0.187623
37.14,2.287643,3.529507,-9.183254,0.003491,0.042761,0.19984
37.16,1.241864,-2.026198,-8.98717,-0.102102,0.016581,0.226893
37.18,2.745172,4.575287,-8.235517,-0.133518,0.027925,0.19984
37.2,0.620932,4.313842,-11.307494,-0.151844,0.068068,0.185878
37.22,0.555571,1.111141,-10.686563,-0.131772,0.115192,0.148353
37.24,2.483727,6.960972,-7.451181,-0.192859,0.100356,0.203331
37.26,1.274544,-1.470628,-10.948008,-0.106465,0.061087,0.149226
37.28,0.817016,-1.470628,-10.52316,-0.020071,-0.027053,0.182387
37.3,1.764753,-0.032681,-9.771505,0.006109,-0.109956,0.204204
37.32,0.326806,2.483727,-9.804186,0.150098,-0.048869,0.163188
37.34,0.294126,-4.542606,-9.575421,0.038397,-0.02618,0.193732
37.36,0.359487,-0.228764,-9.542741,0.085521,0.060214,0.180642
37.38,1.634031,0.947738,-9.869547,0,0.094248,0.15708
37.4,0.817016,-2.418366,-9.673464,-0.086394,0.051487,0.164934
37.42,3.13734,7.679945,-9.379338,-0.057596,-0.014835,0.136136
37.44,-0.817016,-5.294261,-10.980688,-0.182387,-0.022689,0.146608
37.46,0,-3.856313,-9.248615,-0.16057,-0.051487,0.168424
37.48,1.830115,0.196084,-9.379338,-0.146608,0.008727,0.153589
37.5,0.196084,-4.477245,-10.196354,-0.149226,0.031416,0.19635
37.52,0.065361,-1.862795,-10.882647,0.019199,0.042761,0.152716
37.54,0.359487,-4.967454,-9.902227,0.03927,-0.015708,0.168424
37.56,0.980419,-0.326806,-9.47738,0.088139,-0.003491,0.131772
37.58,2.451046,3.235381,-9.215935,0.096866,0.010472,0.10472
37.6,0.620932,-1.797434,-8.889129,-0.030543,0.008727,0.150971
37.62,0,-1.993518,-10.588521,-0.027925,0.012217,0.146608
37.64,0.849696,2.810533,-10.686563,-0.124791,0.016581,0.109956
37.66,0.359487,-1.960837,-11.013369,-0.090757,-0.001745,0.11781
37.68,2.385685,7.712626,-9.869547,-0.069813,0.027053,0.096866
37.7,0.882377,-0.261445,-9.085213,-0.101229,0.017453,0.114319
37.72,2.026198,-1.437947,-8.595003,-0.042761,0.032289,0.10821
37.74,1.797434,2.320324,-8.98717,-0.035779,0.029671,0.109083
37.76,1.274544,-1.013099,-8.268197,-0.022689,0.010472,0.111701
37.78,2.222282,4.673329,-8.660364,0.054105,0.015708,0.110828
37.8,2.712492,3.300743,-9.215935,0.076794,0.034034,0.082903
37.82,2.843214,0.196084,-9.085213,0.032289,0.020944,0.126536
37.84,2.189601,4.2158,-8.693045,0.102102,0.02618,0.100356
37.86,2.320324,0.947738,-7.843349,-0.05236,-0.008727,0.09512
37.88,1.274544,0.098042,-8.300878,-0.05236,-0.006109,0.114319
37.9,0.882377,-0.653612,-10.817286,-0.095993,0.023562,0.07854
37.92,1.013099,3.660229,-8.823768,-0.124791,0.007854,0.076794
37.94,-1.07846,-1.764753,-12.353274,-0.034907,0.044506,0.057596
37.96,-0.490209,-2.581769,-10.130992,-0.095993,0.027053,0.085521
37.98,1.143822,1.56867,-10.098311,-0.001745,-0.001745,0.098611
38,2.353005,6.699527,-9.019851,-0.015708,0.021817,0.095993
38.02,4.509925,8.595003,-7.320459,-0.000873,0.034907,0.074176
38.04,3.202701,5.686428,-8.300878,0.007854,0.045379,0.067195
38.06,0.424848,-2.026198,-10.751924,0.01309,0.016581,0.079412
38.08,0.032681,-1.993518,-11.568939,-0.035779,-0.004363,0.076794
38.1,0.032681,2.875895,-10.457798,-0.047997,0.017453,0.068068
38.12,0.294126,4.313842,-11.536259,0.002618,0.047997,0.060214
